#time,accel_x,accel_y,accel_z
1379.306156,-8956.491898,-76.609550,666.185348
1379.306468,-8438.347739,-306.438199,666.185348
1379.306780,-8808.450710,76.609550,592.164754
1379.307091,-8882.471304,-153.219100,592.164754
1379.307403,-8956.491898,-306.438199,592.164754
1379.307714,-8956.491898,76.609550,592.164754
1379.308026,-8808.450710,-153.219100,370.102971
1379.308338,-9252.574275,-76.609550,296.082377
1379.308649,-8512.368333,-153.219100,518.144159
1379.308961,-9104.533087,153.219100,518.144159
1379.309272,-9030.512492,0.000000,444.123565
1379.309584,-8808.450710,0.000000,592.164754
1379.309896,-8956.491898,0.000000,666.185348
1379.310207,-8882.471304,0.000000,518.144159
1379.310519,-8586.388927,229.828649,814.226536
1379.310830,-8882.471304,-842.705048,740.205942
1379.311142,-8438.347739,153.219100,592.164754
1379.311454,-8808.450710,0.000000,592.164754
1379.311765,-8882.471304,-153.219100,592.164754
1379.312077,-8956.491898,76.609550,592.164754
1379.312388,-8882.471304,0.000000,592.164754
1379.312700,-9178.553681,-153.219100,296.082377
1379.313012,-9030.512492,536.266849,1036.288319
1379.313323,-9326.594869,153.219100,-0.000000
1379.313635,-8956.491898,459.657299,296.082377
1379.313946,-8956.491898,0.000000,370.102971
1379.314258,-9104.533087,0.000000,666.185348
1379.314570,-8882.471304,0.000000,592.164754
1379.314881,-9030.512492,0.000000,592.164754
1379.315193,-8956.491898,536.266849,666.185348
1379.315504,-8808.450710,-229.828649,592.164754
1379.315816,-8290.306550,-383.047749,518.144159
1379.316128,-8956.491898,-383.047749,-0.000000
1379.316439,-8808.450710,-306.438199,592.164754
1379.316751,-8956.491898,0.000000,518.144159
1379.317062,-8956.491898,-459.657299,444.123565
1379.317374,-9030.512492,0.000000,666.185348
1379.317686,-8512.368333,306.438199,518.144159
1379.317997,-8882.471304,76.609550,148.041188
1379.318309,-8956.491898,-459.657299,222.061783
1379.318620,-8808.450710,153.219100,740.205942
1379.318932,-9030.512492,0.000000,592.164754
1379.319244,-9178.553681,0.000000,444.123565
1379.319555,-9326.594869,153.219100,444.123565
1379.319867,-8956.491898,459.657299,814.226536
1379.320178,-8882.471304,-229.828649,370.102971
1379.320490,-8290.306550,0.000000,518.144159
1379.320802,-8660.409521,459.657299,740.205942
1379.321113,-8808.450710,0.000000,740.205942
1379.321425,-8956.491898,0.000000,592.164754
1379.321736,-8956.491898,0.000000,740.205942
1379.322048,-8956.491898,0.000000,518.144159
1379.322360,-8808.450710,0.000000,740.205942
1379.322671,-8882.471304,-306.438199,518.144159
1379.322983,-8882.471304,-229.828649,444.123565
1379.323294,-9178.553681,0.000000,222.061783
1379.323606,-9030.512492,-153.219100,740.205942
1379.323918,-8882.471304,153.219100,666.185348
1379.324229,-9252.574275,76.609550,370.102971
1379.324541,-9030.512492,0.000000,666.185348
1379.324852,-8882.471304,459.657299,666.185348
1379.325164,-8956.491898,229.828649,222.061783
1379.325476,-8882.471304,-459.657299,888.247130
1379.325787,-8734.430116,383.047749,518.144159
1379.326099,-8882.471304,0.000000,666.185348
1379.326410,-8734.430116,-153.219100,592.164754
1379.326722,-9030.512492,0.000000,592.164754
1379.327034,-9030.512492,0.000000,592.164754
1379.327345,-8956.491898,0.000000,444.123565
1379.327657,-8882.471304,0.000000,518.144159
1379.327968,-8438.347739,76.609550,296.082377
1379.328280,-8956.491898,0.000000,296.082377
1379.328592,-8882.471304,76.609550,592.164754
1379.328903,-8956.491898,0.000000,592.164754
1379.329215,-9104.533087,0.000000,740.205942
1379.329526,-8808.450710,0.000000,592.164754
1379.329838,-8734.430116,229.828649,370.102971
1379.330150,-8660.409521,0.000000,740.205942
1379.330461,-8808.450710,383.047749,222.061783
1379.330773,-8808.450710,76.609550,740.205942
1379.331084,-8956.491898,0.000000,370.102971
1379.331396,-9030.512492,-153.219100,666.185348
1379.331708,-8956.491898,0.000000,592.164754
1379.332019,-9178.553681,383.047749,592.164754
1379.332331,-8882.471304,-612.876398,592.164754
1379.332642,-8734.430116,-459.657299,444.123565
1379.332954,-8956.491898,459.657299,296.082377
1379.333266,-9326.594869,76.609550,592.164754
1379.333577,-11547.212695,919.314598,222.061783
1379.333889,-10732.986159,3447.429741,518.144159
1379.334200,-8438.347739,4903.011187,666.185348
1379.334512,-7254.018232,3370.820191,1258.350101
1379.334824,-6143.709319,536.266849,1184.329507
1379.335135,-6957.935855,-1608.800546,-444.123565
1379.335447,-7105.977043,-1302.362347,-0.000000
1379.335758,-8364.327145,-842.705048,-444.123565
1379.336070,-12731.542202,-1225.752797,-1184.329507
1379.336381,-12139.377449,0.000000,-0.000000
1379.336693,-10066.800811,459.657299,518.144159
1379.337005,-9178.553681,-153.219100,1850.514855
1379.337316,-9770.718434,0.000000,2590.720797
1379.337628,-11695.253884,1455.581446,1554.432478
1379.337939,-6883.915261,4749.792088,2516.700203
1379.338251,-5625.565159,4903.011187,1924.535449
1379.338563,-8068.244768,3064.381992,592.164754
1379.338874,-7179.997637,2911.162892,-1036.288319
1379.339186,-7698.141797,3600.648841,-2368.659014
1379.339497,-8808.450710,3140.991542,-1036.288319
1379.339809,-8364.327145,4060.306139,-370.102971
1379.340121,-14063.912898,1685.410096,-1628.453072
1379.340432,-12657.521608,-1072.533697,1702.473667
1379.340744,-9030.512492,-995.924147,2072.576638
1379.341055,-10732.986159,1685.410096,1184.329507
1379.341367,-7550.100608,6894.859482,3034.844362
1379.341679,-8216.285956,5515.887586,1184.329507
1379.341990,-6439.791695,3524.039291,3182.885551
1379.342302,-5255.462188,5286.058936,1776.494261
1379.342613,-6883.915261,7354.516781,-0.000000
1379.342925,-8216.285956,7124.688131,-1258.350101
1379.343237,-10362.883188,5132.839837,-1036.288319
1379.343548,-9474.636058,5209.449386,-1776.494261
1379.343860,-11103.089130,5515.887586,-740.205942
1379.344171,-11843.295072,4673.182538,370.102971
1379.344483,-10955.047942,3907.087040,1702.473667
1379.344795,-10362.883188,3677.258390,2368.659014
1379.345106,-8364.327145,4903.011187,2516.700203
1379.345418,-6365.771101,4443.353888,1480.411884
1379.345729,-5551.544565,5056.230287,222.061783
1379.346041,-5033.400406,4903.011187,444.123565
1379.346353,-5477.523971,5056.230287,-740.205942
1379.346664,-6439.791695,4826.401637,-1036.288319
1379.346976,-9030.512492,3370.820191,-888.247130
1379.347287,-9770.718434,2757.943793,-74.020594
1379.347599,-10732.986159,1378.971896,1110.308913
1379.347911,-10658.965565,689.485948,1628.453072
1379.348222,-11029.068536,-689.485948,1628.453072
1379.348534,-11103.089130,842.705048,1850.514855
1379.348845,-9178.553681,3140.991542,1924.535449
1379.349157,-7846.182985,4519.963438,814.226536
1379.349469,-6513.812290,3524.039291,-0.000000
1379.349780,-6661.853478,3524.039291,-296.082377
1379.350092,-6957.935855,3370.820191,-666.185348
1379.350403,-6587.832884,3140.991542,-1184.329507
1379.350715,-7846.182985,842.705048,-962.267725
1379.351027,-9844.739029,-1302.362347,-592.164754
1379.351338,-11251.130318,-2068.457845,592.164754
1379.351650,-12213.398043,-2604.724693,1332.370696
1379.351961,-13397.727550,-1762.019645,2072.576638
1379.352273,-13471.748144,-383.047749,1480.411884
1379.352585,-12657.521608,1302.362347,1110.308913
1379.352896,-10288.862594,3600.648841,370.102971
1379.353208,-7846.182985,4366.744339,-0.000000
1379.353519,-5847.626942,4826.401637,518.144159
1379.353831,-6439.791695,5132.839837,444.123565
1379.354143,-6809.894666,4519.963438,-74.020594
1379.354454,-7994.224174,3677.258390,-666.185348
1379.354766,-10807.006753,2374.896044,-592.164754
1379.355077,-11991.336260,919.314598,-0.000000
1379.355389,-13397.727550,153.219100,-518.144159
1379.355701,-13841.851115,-536.266849,-0.000000
1379.356012,-13027.624579,919.314598,740.205942
1379.356324,-10732.986159,2681.334243,1184.329507
1379.356635,-8586.388927,4136.915689,1776.494261
1379.356947,-6957.935855,4903.011187,1850.514855
1379.357259,-3997.112087,5515.887586,814.226536
1379.357570,-1628.453072,7124.688131,-370.102971
1379.357882,-1184.329507,7048.078582,-1628.453072
1379.358193,-3775.050304,4136.915689,-1850.514855
1379.358505,-7624.121203,2298.286494,-1554.432478
1379.358817,-10955.047942,2221.676944,-148.041188
1379.359128,-14508.036463,2604.724693,1332.370696
1379.359440,-15174.221811,2298.286494,3330.926739
1379.359751,-14952.160028,1991.848295,3256.906145
1379.360063,-11547.212695,2834.553343,3256.906145
1379.360375,-6809.894666,3753.867940,2146.597232
1379.360686,-2960.823768,4903.011187,814.226536
1379.360998,-1702.473667,6052.154434,-592.164754
1379.361309,-2368.659014,6741.640382,-1998.556043
1379.361621,-3997.112087,6052.154434,-2072.576638
1379.361933,-6661.853478,5439.278036,-2368.659014
1379.362244,-9326.594869,3140.991542,-222.061783
1379.362556,-11029.068536,76.609550,-0.000000
1379.362867,-12361.439231,-2528.115143,1480.411884
1379.363179,-12583.501014,-3677.258390,2072.576638
1379.363491,-13027.624579,-3217.601092,1554.432478
1379.363802,-13027.624579,-153.219100,2368.659014
1379.364114,-11917.315666,1915.238745,2220.617826
1379.364425,-10658.965565,4749.792088,2220.617826
1379.364737,-8290.306550,5592.497135,2294.638420
1379.365049,-6957.935855,5056.230287,1628.453072
1379.365360,-6439.791695,3907.087040,-0.000000
1379.365672,-6587.832884,3140.991542,-962.267725
1379.365983,-7698.141797,4213.525239,-2664.741391
1379.366295,-9400.615463,3830.477490,-2738.761985
1379.366607,-11547.212695,4366.744339,-2590.720797
1379.366918,-12361.439231,2528.115143,-1036.288319
1379.367230,-12065.356855,1915.238745,962.267725
1379.367541,-12435.459826,1685.410096,2368.659014
1379.367853,-12065.356855,2451.505594,3108.864956
1379.368165,-11251.130318,3524.039291,2294.638420
1379.368476,-9548.656652,6511.811733,592.164754
1379.368788,-5847.626942,7201.297681,296.082377
1379.369099,-5329.482782,6052.154434,-1110.308913
1379.369411,-5329.482782,3524.039291,-222.061783
1379.369723,-6809.894666,1991.848295,-1628.453072
1379.370034,-7179.997637,2451.505594,-814.226536
1379.370346,-8216.285956,2145.067394,-0.000000
1379.370657,-9844.739029,-459.657299,1776.494261
1379.370969,-8512.368333,-2604.724693,2664.741391
1379.371281,-7105.977043,-3217.601092,2072.576638
1379.371592,-7772.162391,-1072.533697,1998.556043
1379.371904,-8882.471304,3753.867940,296.082377
1379.372215,-11029.068536,7737.564530,-74.020594
1379.372527,-11029.068536,9193.145976,444.123565
1379.372838,-9992.780217,6741.640382,1480.411884
1379.373150,-8438.347739,4519.963438,1480.411884
1379.373462,-6661.853478,2451.505594,1332.370696
1379.373773,-5699.585753,2604.724693,370.102971
1379.374085,-4663.297435,2145.067394,1480.411884
1379.374396,-4219.173869,-612.876398,740.205942
1379.374708,-4589.276840,-2834.553343,296.082377
1379.375020,-6143.709319,-4060.306139,-592.164754
1379.375331,-9326.594869,-1991.848295,-814.226536
1379.375643,-11769.274478,1378.971896,-888.247130
1379.375954,-13767.830521,3294.210641,-962.267725
1379.376266,-15026.180623,3064.381992,1036.288319
1379.376578,-15248.242405,689.485948,2516.700203
1379.376889,-14285.974681,-612.876398,3108.864956
1379.377201,-10436.903782,-229.828649,3552.988522
1379.377512,-6143.709319,-153.219100,2516.700203
1379.377824,-3404.947333,-2221.676944,1850.514855
1379.378135,-2368.659014,-5592.497135,296.082377
1379.378447,-2812.782580,-7048.078582,-370.102971
1379.378758,-6365.771101,-7048.078582,-740.205942
1379.379070,-9252.574275,-2528.115143,-1998.556043
1379.379381,-12953.603985,1762.019645,-2812.782580
1379.379693,-16506.592507,2298.286494,-1776.494261
1379.380004,-17764.942608,1149.143247,1036.288319
1379.380316,-17764.942608,0.000000,2664.741391
1379.380627,-15470.304188,0.000000,2590.720797
1379.380938,-11103.089130,2221.676944,1850.514855
1379.381250,-5551.544565,2604.724693,666.185348
1379.381561,-296.082377,536.266849,444.123565
1379.381873,2368.659014,-3140.991542,222.061783
1379.382184,0.000000,-5362.668486,-1184.329507
1379.382496,-2960.823768,-3217.601092,-1480.411884
1379.382807,-7994.224174,2374.896044,-2368.659014
1379.383119,-13989.892304,2911.162892,-1998.556043
1379.383430,-18061.024985,1608.800546,-148.041188
1379.383741,-20355.663405,-612.876398,370.102971
1379.384053,-18357.107362,766.095498,1110.308913
1379.384364,-14434.015869,4060.306139,1332.370696
1379.384676,-8438.347739,3370.820191,1184.329507
1379.384987,-1406.391290,0.000000,1332.370696
1379.385299,1628.453072,-5209.449386,2368.659014
1379.385610,2368.659014,-7048.078582,1480.411884
1379.385922,0.000000,-3907.087040,-370.102971
1379.386233,-4145.153275,3294.210641,-1998.556043
1379.386544,-10140.821405,4826.401637,-2442.679609
1379.386856,-17320.819043,3753.867940,-962.267725
1379.387167,-19615.457463,3830.477490,444.123565
1379.387479,-18579.169144,3983.696590,1332.370696
1379.387790,-15026.180623,3983.696590,2368.659014
1379.388102,-9548.656652,4366.744339,1036.288319
1379.388413,-5107.421000,2221.676944,-370.102971
1379.388725,74.020594,-2221.676944,-592.164754
1379.389036,1258.350101,-3064.381992,666.185348
1379.389348,-2442.679609,-1685.410096,1628.453072
1379.389659,-3997.112087,689.485948,518.144159
1379.389970,-7624.121203,766.095498,888.247130
1379.390282,-13101.645173,-1608.800546,1702.473667
1379.390593,-16506.592507,-689.485948,1924.535449
1379.390905,-17764.942608,1225.752797,2294.638420
1379.391216,-15100.201217,2221.676944,888.247130
1379.391528,-10658.965565,2068.457845,1258.350101
1379.391839,-7772.162391,-766.095498,-222.061783
1379.392151,-5625.565159,-2528.115143,-222.061783
1379.392462,-2516.700203,-3600.648841,-0.000000
1379.392773,-2960.823768,-2145.067394,-74.020594
1379.393085,-5329.482782,383.047749,2368.659014
1379.393396,-6883.915261,-612.876398,1480.411884
1379.393708,-9992.780217,-2911.162892,2368.659014
1379.394019,-12583.501014,-3140.991542,3182.885551
1379.394331,-13545.768739,0.000000,2368.659014
1379.394642,-13101.645173,2911.162892,1036.288319
1379.394954,-10955.047942,1608.800546,-0.000000
1379.395265,-9178.553681,-1991.848295,-296.082377
1379.395577,-7624.121203,-3830.477490,-1776.494261
1379.395888,-6143.709319,-3983.696590,-1480.411884
1379.396199,-5403.503377,-1915.238745,-1554.432478
1379.396511,-5477.523971,-842.705048,518.144159
1379.396822,-9400.615463,-2757.943793,1702.473667
1379.397134,-12435.459826,-5132.839837,2960.823768
1379.397445,-12953.603985,-1838.629195,2590.720797
1379.397757,-11029.068536,1915.238745,1998.556043
1379.398068,-9474.636058,3600.648841,148.041188
1379.398380,-8142.265362,0.000000,-888.247130
1379.398691,-5773.606348,-2604.724693,-1850.514855
1379.399002,-4441.235652,-3294.210641,-1850.514855
1379.399314,-5699.585753,-2221.676944,-2072.576638
1379.399625,-9030.512492,766.095498,-2442.679609
1379.399937,-11473.192101,3294.210641,-1036.288319
1379.400248,-12435.459826,1302.362347,370.102971
1379.400560,-13767.830521,-1302.362347,2072.576638
1379.400871,-13619.789333,229.828649,2294.638420
1379.401183,-12361.439231,3140.991542,888.247130
1379.401494,-8142.265362,4749.792088,-296.082377
1379.401805,-4589.276840,3140.991542,-962.267725
1379.402117,-3997.112087,-306.438199,-2220.617826
1379.402428,-4293.194464,-2911.162892,-2294.638420
1379.402740,-5477.523971,-1915.238745,-2738.761985
1379.403051,-9770.718434,995.924147,-1924.535449
1379.403363,-13101.645173,2374.896044,814.226536
1379.403674,-14285.974681,-76.609550,888.247130
1379.403986,-14359.995275,-1838.629195,3330.926739
1379.404297,-13471.748144,-2068.457845,3182.885551
1379.404609,-10807.006753,1532.190996,2590.720797
1379.404920,-7624.121203,4213.525239,2220.617826
1379.405231,-3997.112087,3064.381992,592.164754
1379.405543,-2072.576638,-612.876398,-962.267725
1379.405854,-1258.350101,-2298.286494,-2516.700203
1379.406166,-2368.659014,0.000000,-2368.659014
1379.406477,-6513.812290,2374.896044,-2368.659014
1379.406789,-10510.924376,2221.676944,1258.350101
1379.407100,-14434.015869,-383.047749,2812.782580
1379.407412,-16728.654289,-3217.601092,4515.256246
1379.407723,-16136.489536,-1455.581446,5477.523971
1379.408034,-13471.748144,2528.115143,4071.132681
1379.408346,-8364.327145,4443.353888,2812.782580
1379.408657,-2294.638420,2068.457845,222.061783
1379.408969,222.061783,-1378.971896,-1036.288319
1379.409280,592.164754,-1378.971896,-1924.535449
1379.409592,-2294.638420,-153.219100,-1702.473667
1379.409903,-6957.935855,306.438199,-1406.391290
1379.410215,-10288.862594,536.266849,888.247130
1379.410526,-14952.160028,-1532.190996,2072.576638
1379.410838,-17172.777854,-4443.353888,3330.926739
1379.411149,-17024.736666,-3600.648841,4515.256246
1379.411460,-14952.160028,-1532.190996,4145.153275
1379.411772,-11177.109724,-536.266849,3034.844362
1379.412083,-6513.812290,-1915.238745,1258.350101
1379.412395,-4219.173869,-2298.286494,-0.000000
1379.412706,-2590.720797,-3140.991542,-444.123565
1379.413018,-2960.823768,-1225.752797,-1924.535449
1379.413329,-5477.523971,689.485948,-2072.576638
1379.413641,-8438.347739,2221.676944,-740.205942
1379.413952,-12139.377449,229.828649,-0.000000
1379.414263,-15248.242405,-1991.848295,1628.453072
1379.414575,-15322.262999,-1532.190996,2886.803174
1379.414886,-13249.686362,153.219100,1924.535449
1379.415198,-9770.718434,1532.190996,2072.576638
1379.415509,-7105.977043,0.000000,-296.082377
1379.415821,-4219.173869,-1225.752797,-518.144159
1379.416132,-2590.720797,-1915.238745,-1628.453072
1379.416444,-2812.782580,-689.485948,-2664.741391
1379.416755,-4663.297435,919.314598,-2590.720797
1379.417066,-8142.265362,1838.629195,-1924.535449
1379.417378,-11473.192101,-306.438199,-666.185348
1379.417689,-14063.912898,-2451.505594,888.247130
1379.418001,-16136.489536,-612.876398,2072.576638
1379.418312,-14656.077652,1532.190996,2368.659014
1379.418624,-11029.068536,1685.410096,2590.720797
1379.418935,-7846.182985,-919.314598,1554.432478
1379.419247,-4885.359217,-2145.067394,-0.000000
1379.419558,-3849.070898,-2145.067394,-1924.535449
1379.419870,-3256.906145,1991.848295,-3256.906145
1379.420181,-4737.318029,4136.915689,-2516.700203
1379.420492,-9030.512492,3140.991542,-1702.473667
1379.420804,-12361.439231,-383.047749,-222.061783
1379.421115,-15100.201217,-1149.143247,1184.329507
1379.421427,-15100.201217,919.314598,2368.659014
1379.421738,-13841.851115,3370.820191,1628.453072
1379.422050,-10288.862594,2451.505594,1406.391290
1379.422361,-6217.729913,0.000000,-0.000000
1379.422673,-3108.864956,-1991.848295,-0.000000
1379.422984,-4071.132681,-1685.410096,-666.185348
1379.423295,-5699.585753,1302.362347,-1184.329507
1379.423607,-6957.935855,3294.210641,-444.123565
1379.423918,-9770.718434,1838.629195,518.144159
1379.424230,-12065.356855,-536.266849,814.226536
1379.424541,-14211.954086,612.876398,1554.432478
1379.424853,-13545.768739,0.000000,1924.535449
1379.425164,-11399.171507,1455.581446,2072.576638
1379.425476,-8142.265362,153.219100,1628.453072
1379.425787,-5699.585753,-2145.067394,444.123565
1379.426099,-4811.338623,-3447.429741,814.226536
1379.426410,-4589.276840,-3064.381992,444.123565
1379.426721,-5107.421000,919.314598,-0.000000
1379.427033,-7105.977043,2987.772442,444.123565
1379.427344,-9696.697840,536.266849,1184.329507
1379.427656,-12361.439231,-2068.457845,2294.638420
1379.427967,-12953.603985,-1838.629195,3108.864956
1379.428279,-11843.295072,536.266849,2368.659014
1379.428590,-9622.677246,1762.019645,1554.432478
1379.428902,-7254.018232,612.876398,370.102971
1379.429213,-5107.421000,-1532.190996,296.082377
1379.429524,-3997.112087,-3677.258390,-0.000000
1379.429836,-4737.318029,-3600.648841,-0.000000
1379.430147,-7179.997637,0.000000,888.247130
1379.430459,-8808.450710,2145.067394,1036.288319
1379.430770,-11843.295072,459.657299,1480.411884
1379.431082,-13027.624579,-1838.629195,2146.597232
1379.431393,-12731.542202,-1532.190996,2146.597232
1379.431705,-11991.336260,1455.581446,814.226536
1379.432016,-9474.636058,2834.553343,-0.000000
1379.432327,-6587.832884,1685.410096,-592.164754
1379.432639,-5107.421000,-1762.019645,-1258.350101
1379.432950,-4589.276840,-3830.477490,-1480.411884
1379.433262,-5625.565159,-2374.896044,-1554.432478
1379.433573,-7772.162391,1072.533697,-1332.370696
1379.433885,-9844.739029,2604.724693,-222.061783
1379.434196,-13175.665768,229.828649,1036.288319
1379.434508,-15026.180623,-1149.143247,1998.556043
1379.434819,-15692.365970,153.219100,1924.535449
1379.435131,-13027.624579,3370.820191,1332.370696
1379.435442,-9844.739029,4136.915689,296.082377
1379.435753,-5847.626942,2451.505594,-592.164754
1379.436065,-4071.132681,-766.095498,-1702.473667
1379.436376,-3034.844362,-2298.286494,-1776.494261
1379.436688,-3701.029710,-995.924147,-2516.700203
1379.436999,-6809.894666,2528.115143,-2516.700203
1379.437311,-10658.965565,3447.429741,-1480.411884
1379.437622,-14137.933492,459.657299,-296.082377
1379.437934,-15322.262999,-842.705048,1998.556043
1379.438245,-14804.118840,0.000000,2442.679609
1379.438556,-13767.830521,1915.238745,1850.514855
1379.438868,-9474.636058,1991.848295,2146.597232
1379.439179,-4737.318029,459.657299,740.205942
1379.439491,-2960.823768,-2757.943793,-222.061783
1379.439802,-2072.576638,-4060.306139,-1184.329507
1379.440114,-2516.700203,-766.095498,-2368.659014
1379.440425,-4885.359217,2451.505594,-1258.350101
1379.440737,-8956.491898,2451.505594,-0.000000
1379.441048,-12953.603985,-612.876398,1850.514855
1379.441360,-15470.304188,-1378.971896,3552.988522
1379.441671,-15544.324782,0.000000,4071.132681
1379.441982,-13471.748144,2911.162892,3182.885551
1379.442294,-9474.636058,4519.963438,1702.473667
1379.442605,-5773.606348,2451.505594,-0.000000
1379.442917,-2812.782580,-919.314598,-666.185348
1379.443228,-1554.432478,-2298.286494,-1036.288319
1379.443540,-2442.679609,-383.047749,-1332.370696
1379.443851,-4663.297435,689.485948,-962.267725
1379.444163,-9474.636058,0.000000,444.123565
1379.444474,-12953.603985,-2911.162892,2146.597232
1379.444785,-15248.242405,-3140.991542,3256.906145
1379.445097,-15248.242405,-1608.800546,4515.256246
1379.445408,-13767.830521,536.266849,3627.009116
1379.445720,-10732.986159,919.314598,2368.659014
1379.446031,-6587.832884,-1072.533697,962.267725
1379.446343,-3478.967927,-2528.115143,592.164754
1379.446654,-2812.782580,-3064.381992,-1258.350101
1379.446966,-3627.009116,-919.314598,-1332.370696
1379.447277,-6439.791695,842.705048,-888.247130
1379.447588,-10066.800811,459.657299,1184.329507
1379.447900,-13397.727550,-2221.676944,2368.659014
1379.448211,-15618.345376,-2681.334243,2664.741391
1379.448523,-15174.221811,229.828649,3182.885551
1379.448834,-13101.645173,2451.505594,1480.411884
1379.449146,-8808.450710,2681.334243,1036.288319
1379.449457,-4959.379811,229.828649,-518.144159
1379.449769,-3404.947333,-2068.457845,-814.226536
1379.450080,-3034.844362,-1991.848295,-1184.329507
1379.450392,-4737.318029,383.047749,-1628.453072
1379.450703,-7179.997637,1991.848295,-1850.514855
1379.451014,-9326.594869,1838.629195,-888.247130
1379.451326,-11769.274478,-536.266849,-518.144159
1379.451637,-12731.542202,-689.485948,518.144159
1379.451949,-13101.645173,766.095498,740.205942
1379.452260,-13101.645173,2145.067394,814.226536
1379.452572,-9696.697840,1838.629195,1702.473667
1379.452883,-6957.935855,-459.657299,148.041188
1379.453195,-5921.647536,-1915.238745,-518.144159
1379.453506,-5255.462188,-1225.752797,-1480.411884
1379.453817,-6661.853478,383.047749,-2442.679609
1379.454129,-7920.203579,3140.991542,-962.267725
1379.454440,-10881.027347,2834.553343,-370.102971
1379.454752,-13323.706956,0.000000,888.247130
1379.455063,-14952.160028,-689.485948,1628.453072
1379.455375,-14137.933492,1378.971896,1850.514855
1379.455686,-10807.006753,3677.258390,518.144159
1379.455998,-7105.977043,3600.648841,-74.020594
1379.456309,-3849.070898,306.438199,-296.082377
1379.456621,-3775.050304,-2451.505594,-962.267725
1379.456932,-4885.359217,-2834.553343,-888.247130
1379.457243,-6883.915261,766.095498,-888.247130
1379.457555,-8586.388927,3294.210641,-296.082377
1379.457866,-11843.295072,1838.629195,740.205942
1379.458178,-13101.645173,-2068.457845,2220.617826
1379.458489,-12583.501014,-2834.553343,3034.844362
1379.458801,-11991.336260,-536.266849,2738.761985
1379.459112,-9844.739029,612.876398,2442.679609
1379.459424,-6291.750507,0.000000,1480.411884
1379.459735,-4737.318029,-2298.286494,-370.102971
1379.460046,-3775.050304,-3294.210641,-592.164754
1379.460358,-3627.009116,-2145.067394,-592.164754
1379.460669,-4737.318029,919.314598,-148.041188
1379.460981,-8956.491898,1072.533697,370.102971
1379.461292,-12805.562797,-1149.143247,2664.741391
1379.461604,-15026.180623,-2987.772442,4441.235652
1379.461915,-15100.201217,-2298.286494,4811.338623
1379.462227,-12879.583391,76.609550,3849.070898
1379.462538,-9622.677246,1072.533697,1480.411884
1379.462849,-4959.379811,766.095498,-518.144159
1379.463161,-3034.844362,-1685.410096,-1110.308913
1379.463472,-3256.906145,-4519.963438,-1924.535449
1379.463784,-4737.318029,-3217.601092,-592.164754
1379.464095,-7179.997637,-229.828649,-592.164754
1379.464407,-9696.697840,612.876398,888.247130
1379.464718,-12879.583391,-1532.190996,2072.576638
1379.465030,-14804.118840,-3064.381992,3034.844362
1379.465341,-14582.057057,-2451.505594,2738.761985
1379.465653,-12879.583391,0.000000,2442.679609
1379.465964,-9844.739029,1608.800546,1554.432478
1379.466275,-6883.915261,1149.143247,-0.000000
1379.466587,-4293.194464,-2374.896044,-814.226536
1379.466898,-3256.906145,-4673.182538,-1184.329507
1379.467210,-3849.070898,-1991.848295,-1776.494261
1379.467521,-6439.791695,2451.505594,-1776.494261
1379.467833,-10066.800811,3140.991542,-888.247130
1379.468144,-12953.603985,1225.752797,296.082377
1379.468456,-14804.118840,-153.219100,1258.350101
1379.468767,-14582.057057,1608.800546,1702.473667
1379.469078,-13175.665768,4673.182538,592.164754
1379.469390,-9844.739029,6128.763984,518.144159
1379.469701,-6513.812290,3294.210641,-296.082377
1379.470013,-3404.947333,-536.266849,-1554.432478
1379.470324,-2368.659014,-1302.362347,-1850.514855
1379.470636,-3997.112087,-306.438199,-2886.803174
1379.470947,-5995.668130,1991.848295,-3034.844362
1379.471259,-9474.636058,2298.286494,-1258.350101
1379.471570,-12879.583391,-383.047749,518.144159
1379.471882,-15692.365970,-2451.505594,1924.535449
1379.472193,-16358.551318,-1072.533697,3330.926739
1379.472504,-14211.954086,2374.896044,2960.823768
1379.472816,-10214.842000,3600.648841,1332.370696
1379.473127,-5403.503377,2221.676944,-666.185348
1379.473439,-2664.741391,-1149.143247,-1702.473667
1379.473750,-2368.659014,-2145.067394,-2738.761985
1379.474062,-3478.967927,0.000000,-2294.638420
1379.474373,-7031.956449,1915.238745,-888.247130
1379.474685,-10436.903782,1455.581446,1258.350101
1379.474996,-12953.603985,-2451.505594,3478.967927
1379.475307,-15396.283594,-4290.134789,4885.359217
1379.475619,-14359.995275,-2681.334243,4663.297435
1379.475930,-11843.295072,229.828649,3034.844362
1379.476242,-8068.244768,1991.848295,1480.411884
1379.476553,-4885.359217,919.314598,-1258.350101
1379.476865,-3182.885551,-1532.190996,-1036.288319
1379.477176,-2368.659014,-2681.334243,-1258.350101
1379.477487,-3923.091493,-1302.362347,-592.164754
1379.477799,-6365.771101,1149.143247,1110.308913
1379.478110,-10288.862594,76.609550,1924.535449
1379.478422,-13767.830521,-3064.381992,3182.885551
1379.478733,-14656.077652,-3447.429741,4219.173869
1379.479044,-13471.748144,-2145.067394,3849.070898
1379.479356,-11695.253884,-383.047749,2442.679609
1379.479667,-7698.141797,612.876398,444.123565
1379.479978,-5403.503377,-2528.115143,-666.185348
1379.480290,-4071.132681,-5056.230287,-814.226536
1379.480601,-4663.297435,-5286.058936,-0.000000
1379.480912,-6439.791695,-2145.067394,-0.000000
1379.481224,-9104.533087,229.828649,740.205942
1379.481535,-11843.295072,-383.047749,1406.391290
1379.481846,-13175.665768,-1762.019645,2442.679609
1379.482158,-13989.892304,-1762.019645,2146.597232
1379.482469,-12953.603985,459.657299,2368.659014
1379.482780,-9918.759623,2374.896044,814.226536
1379.483092,-7476.080014,2987.772442,-444.123565
1379.483403,-5921.647536,536.266849,-1776.494261
1379.483714,-4145.153275,-1302.362347,-2220.617826
1379.484026,-4145.153275,-842.705048,-2812.782580
1379.484337,-6365.771101,2298.286494,-2220.617826
1379.484648,-9252.574275,2987.772442,-1258.350101
1379.484960,-12657.521608,1915.238745,-444.123565
1379.485271,-13619.789333,306.438199,1110.308913
1379.485582,-14211.954086,0.000000,1702.473667
1379.485894,-12731.542202,1838.629195,2146.597232
1379.486205,-10214.842000,3370.820191,148.041188
1379.486516,-6735.874072,2987.772442,-370.102971
1379.486828,-4219.173869,766.095498,-2072.576638
1379.487139,-3404.947333,-1149.143247,-2516.700203
1379.487450,-4515.256246,-919.314598,-3034.844362
1379.487762,-6365.771101,1378.971896,-2146.597232
1379.488073,-9992.780217,2451.505594,-1036.288319
1379.488384,-13101.645173,1685.410096,518.144159
1379.488696,-14656.077652,0.000000,2294.638420
1379.489007,-15100.201217,-612.876398,2590.720797
1379.489319,-12657.521608,1608.800546,2664.741391
1379.489630,-9474.636058,3753.867940,666.185348
1379.489941,-5699.585753,2221.676944,-296.082377
1379.490253,-3552.988522,383.047749,-1110.308913
1379.490564,-3404.947333,-1915.238745,-2072.576638
1379.490875,-4515.256246,-1532.190996,-1850.514855
1379.491187,-6883.915261,766.095498,-740.205942
1379.491498,-9252.574275,1608.800546,1110.308913
1379.491809,-11917.315666,-1225.752797,2220.617826
1379.492121,-14656.077652,-3983.696590,3997.112087
1379.492432,-13767.830521,-2757.943793,4885.359217
1379.492743,-11843.295072,-1072.533697,3552.988522
1379.493055,-9400.615463,459.657299,2368.659014
1379.493366,-5403.503377,-306.438199,666.185348
1379.493677,-3701.029710,-2451.505594,-444.123565
1379.493989,-2738.761985,-4749.792088,-518.144159
1379.494300,-4515.256246,-2911.162892,-444.123565
1379.494611,-7031.956449,383.047749,740.205942
1379.494923,-10584.944971,1608.800546,2146.597232
1379.495234,-12953.603985,-995.924147,2812.782580
1379.495545,-14359.995275,-2681.334243,3997.112087
1379.495857,-14211.954086,-995.924147,4071.132681
1379.496168,-11843.295072,1149.143247,2886.803174
1379.496479,-8660.409521,2298.286494,1036.288319
1379.496791,-5477.523971,612.876398,-740.205942
1379.497102,-3552.988522,-1072.533697,-1702.473667
1379.497413,-3627.009116,-3677.258390,-1628.453072
1379.497725,-4811.338623,-2528.115143,-1036.288319
1379.498036,-7698.141797,-536.266849,-148.041188
1379.498347,-10214.842000,-459.657299,1406.391290
1379.498659,-13693.809927,-2681.334243,2442.679609
1379.498970,-15174.221811,-3753.867940,2442.679609
1379.499281,-13693.809927,-2145.067394,2664.741391
1379.499593,-12657.521608,919.314598,962.267725
1379.499904,-9400.615463,1685.410096,296.082377
1379.500215,-6069.688724,612.876398,-1406.391290
1379.500527,-3627.009116,-1532.190996,-1924.535449
1379.500838,-2738.761985,-2068.457845,-1850.514855
1379.501150,-3997.112087,0.000000,-2368.659014
1379.501461,-6957.935855,3064.381992,-1480.411884
1379.501772,-10584.944971,3447.429741,-1036.288319
1379.502084,-13101.645173,2528.115143,740.205942
1379.502395,-15914.427753,1149.143247,1184.329507
1379.502706,-15692.365970,2604.724693,2368.659014
1379.503018,-13027.624579,4443.353888,962.267725
1379.503329,-9400.615463,4826.401637,-0.000000
1379.503640,-5477.523971,3600.648841,-1702.473667
1379.503952,-3404.947333,919.314598,-2590.720797
1379.504263,-3849.070898,0.000000,-3701.029710
1379.504574,-4737.318029,1838.629195,-3775.050304
1379.504886,-7105.977043,4060.306139,-2368.659014
1379.505197,-10510.924376,2911.162892,-1480.411884
1379.505508,-13841.851115,-536.266849,1480.411884
1379.505820,-14878.139434,-2604.724693,2812.782580
1379.506131,-14434.015869,-1915.238745,3775.050304
1379.506442,-12435.459826,306.438199,1998.556043
1379.506754,-8512.368333,1072.533697,1184.329507
1379.507065,-5477.523971,-689.485948,-592.164754
1379.507376,-3701.029710,-2987.772442,-666.185348
1379.507688,-3775.050304,-3830.477490,-888.247130
1379.507999,-4737.318029,-1072.533697,-444.123565
1379.508310,-7179.997637,2298.286494,740.205942
1379.508622,-10807.006753,2528.115143,1776.494261
1379.508933,-12805.562797,0.000000,2146.597232
1379.509244,-14211.954086,0.000000,3034.844362
1379.509556,-12583.501014,2145.067394,3182.885551
1379.509867,-10881.027347,3294.210641,1480.411884
1379.510178,-7698.141797,3524.039291,666.185348
1379.510490,-5255.462188,153.219100,-518.144159
1379.510801,-3330.926739,-2681.334243,-444.123565
1379.511112,-2664.741391,-3217.601092,444.123565
1379.511424,-4959.379811,-1072.533697,518.144159
1379.511735,-7698.141797,0.000000,1628.453072
1379.512046,-10881.027347,-1762.019645,2368.659014
1379.512358,-12287.418637,-3600.648841,4367.215058
1379.512669,-13323.706956,-3907.087040,4219.173869
1379.512981,-12361.439231,-2374.896044,3849.070898
1379.513292,-10510.924376,-459.657299,2146.597232
1379.513603,-7328.038826,536.266849,962.267725
1379.513915,-5477.523971,-1762.019645,-444.123565
1379.514226,-4737.318029,-3294.210641,-74.020594
1379.514537,-4515.256246,-2987.772442,888.247130
1379.514849,-7105.977043,-995.924147,-0.000000
1379.515160,-9696.697840,1378.971896,814.226536
1379.515471,-11991.336260,995.924147,1332.370696
1379.515783,-12805.562797,0.000000,1702.473667
1379.516094,-13027.624579,-306.438199,2368.659014
1379.516405,-12139.377449,1532.190996,2220.617826
1379.516717,-9548.656652,2528.115143,592.164754
1379.517028,-6957.935855,1685.410096,-74.020594
1379.517339,-5773.606348,153.219100,-2072.576638
1379.517651,-4515.256246,-919.314598,-2664.741391
1379.517962,-5773.606348,153.219100,-3701.029710
1379.518273,-7476.080014,1685.410096,-2220.617826
1379.518585,-9400.615463,2374.896044,-1258.350101
1379.518896,-11917.315666,612.876398,-148.041188
1379.519207,-13915.871710,-1149.143247,1036.288319
1379.519519,-14508.036463,-1455.581446,1554.432478
1379.519830,-14211.954086,1532.190996,962.267725
1379.520141,-10955.047942,3907.087040,-148.041188
1379.520453,-6291.750507,3294.210641,-1924.535449
1379.520764,-4737.318029,0.000000,-2664.741391
1379.521075,-4071.132681,-1149.143247,-2368.659014
1379.521387,-4515.256246,-229.828649,-2368.659014
1379.521698,-6217.729913,1685.410096,-1406.391290
1379.522009,-8808.450710,2834.553343,740.205942
1379.522321,-11621.233289,995.924147,962.267725
1379.522632,-13767.830521,-306.438199,1480.411884
1379.522943,-13767.830521,612.876398,1924.535449
1379.523255,-12361.439231,2604.724693,1036.288319
1379.523566,-8290.306550,4136.915689,666.185348
1379.523878,-6291.750507,1762.019645,-666.185348
1379.524189,-4737.318029,-2451.505594,-740.205942
1379.524500,-3552.988522,-3370.820191,-666.185348
1379.524812,-4737.318029,-1685.410096,-740.205942
1379.525123,-6957.935855,689.485948,-0.000000
1379.525434,-9252.574275,0.000000,1480.411884
1379.525746,-12213.398043,-2451.505594,2812.782580
1379.526057,-13101.645173,-4290.134789,3923.091493
1379.526368,-13693.809927,-2604.724693,4737.318029
1379.526680,-12657.521608,-306.438199,3256.906145
1379.526991,-9252.574275,1455.581446,1776.494261
1379.527302,-5921.647536,306.438199,296.082377
1379.527614,-4441.235652,-2451.505594,148.041188
1379.527925,-4515.256246,-2834.553343,296.082377
1379.528236,-5329.482782,-1149.143247,-148.041188
1379.528548,-7031.956449,612.876398,888.247130
1379.528859,-9400.615463,1532.190996,1776.494261
1379.529170,-11991.336260,-306.438199,2738.761985
1379.529482,-13545.768739,-1991.848295,3775.050304
1379.529793,-13915.871710,-1685.410096,4293.194464
1379.530104,-13101.645173,689.485948,2960.823768
1379.530416,-9104.533087,3677.258390,888.247130
1379.530727,-6883.915261,2451.505594,-740.205942
1379.531038,-5773.606348,-1762.019645,-1480.411884
1379.531350,-3627.009116,-2068.457845,-1332.370696
1379.531661,-4367.215058,-612.876398,-1110.308913
1379.531972,-6365.771101,459.657299,-0.000000
1379.532284,-9400.615463,229.828649,814.226536
1379.532595,-12435.459826,-2145.067394,2442.679609
1379.532906,-13323.706956,-2911.162892,3330.926739
1379.533218,-13175.665768,-2374.896044,2368.659014
1379.533529,-12213.398043,153.219100,518.144159
1379.533840,-8512.368333,2604.724693,-0.000000
1379.534152,-5847.626942,383.047749,-1702.473667
1379.534463,-5107.421000,-2681.334243,-2220.617826
1379.534774,-4811.338623,-2681.334243,-1628.453072
1379.535086,-4885.359217,0.000000,-1702.473667
1379.535397,-7254.018232,2451.505594,-814.226536
1379.535709,-9918.759623,2145.067394,-222.061783
1379.536020,-11399.171507,-612.876398,1332.370696
1379.536331,-13175.665768,-1225.752797,1480.411884
1379.536643,-12805.562797,1838.629195,1998.556043
1379.536954,-11547.212695,4826.401637,296.082377
1379.537265,-8808.450710,4596.572988,-962.267725
1379.537577,-5921.647536,1608.800546,-2368.659014
1379.537888,-4589.276840,-459.657299,-2516.700203
1379.538199,-4145.153275,-1378.971896,-3108.864956
1379.538511,-6365.771101,1455.581446,-2590.720797
1379.538822,-9252.574275,2221.676944,-888.247130
1379.539133,-11991.336260,383.047749,444.123565
1379.539445,-14359.995275,-2298.286494,1554.432478
1379.539756,-14878.139434,-2604.724693,2812.782580
1379.540067,-13989.892304,-306.438199,3108.864956
1379.540379,-11473.192101,842.705048,1184.329507
1379.540690,-7550.100608,1225.752797,-0.000000
1379.541001,-6217.729913,-1532.190996,-1850.514855
1379.541313,-4441.235652,-3830.477490,-1258.350101
1379.541624,-4737.318029,-3064.381992,-1184.329507
1379.541935,-6587.832884,-612.876398,-888.247130
1379.542247,-9104.533087,995.924147,444.123565
1379.542558,-11547.212695,76.609550,2368.659014
1379.542869,-13619.789333,-2221.676944,2812.782580
1379.543181,-15100.201217,-1762.019645,3849.070898
1379.543492,-13175.665768,76.609550,4071.132681
1379.543803,-9474.636058,2681.334243,2220.617826
1379.544115,-5847.626942,2681.334243,1036.288319
1379.544426,-3775.050304,-229.828649,-888.247130
1379.544737,-2146.597232,-2068.457845,-814.226536
1379.545049,-2368.659014,-1762.019645,-814.226536
1379.545360,-5551.544565,229.828649,-740.205942
1379.545671,-8290.306550,842.705048,1110.308913
1379.545983,-11843.295072,0.000000,2146.597232
1379.546294,-13323.706956,-2987.772442,3849.070898
1379.546605,-13249.686362,-4213.525239,4737.318029
1379.546917,-12805.562797,-2604.724693,3923.091493
1379.547228,-9474.636058,-76.609550,2812.782580
1379.547540,-6661.853478,-383.047749,814.226536
1379.547851,-4219.173869,-2374.896044,-740.205942
1379.548162,-2664.741391,-2604.724693,-592.164754
1379.548474,-3849.070898,-1915.238745,-1332.370696
1379.548785,-5625.565159,536.266849,-814.226536
1379.549096,-9030.512492,1532.190996,-148.041188
1379.549408,-12509.480420,153.219100,814.226536
1379.549719,-14952.160028,-1225.752797,2220.617826
1379.550030,-15248.242405,306.438199,2664.741391
1379.550342,-14211.954086,2145.067394,2072.576638
1379.550653,-10658.965565,2528.115143,814.226536
1379.550964,-5699.585753,1838.629195,-444.123565
1379.551276,-3849.070898,-995.924147,-1554.432478
1379.551587,-2812.782580,-2604.724693,-2146.597232
1379.551898,-3849.070898,-1762.019645,-2368.659014
1379.552210,-6883.915261,1225.752797,-2738.761985
1379.552521,-10140.821405,2068.457845,-814.226536
1379.552832,-13471.748144,766.095498,296.082377
1379.553144,-15248.242405,0.000000,1332.370696
1379.553455,-15840.407159,153.219100,2146.597232
1379.553766,-14508.036463,1225.752797,2146.597232
1379.554078,-10510.924376,2451.505594,1480.411884
1379.554389,-6513.812290,2451.505594,-518.144159
1379.554700,-4145.153275,-383.047749,-1850.514855
1379.555012,-3404.947333,-2374.896044,-2516.700203
1379.555323,-3775.050304,0.000000,-2960.823768
1379.555634,-6069.688724,3064.381992,-2442.679609
1379.555946,-10140.821405,3064.381992,-444.123565
1379.556257,-14063.912898,306.438199,1406.391290
1379.556568,-15766.386565,-1072.533697,2960.823768
1379.556880,-14656.077652,-383.047749,3627.009116
1379.557191,-12287.418637,1455.581446,2516.700203
1379.557502,-8290.306550,3753.867940,1258.350101
1379.557814,-3552.988522,2604.724693,-592.164754
1379.558125,-1702.473667,-612.876398,-1628.453072
1379.558436,-2516.700203,-2604.724693,-1702.473667
1379.558748,-4737.318029,-612.876398,-1258.350101
1379.559059,-7476.080014,1455.581446,-962.267725
1379.559371,-9992.780217,229.828649,1406.391290
1379.559682,-12805.562797,-2604.724693,2442.679609
1379.559993,-13693.809927,-3140.991542,3404.947333
1379.560305,-13101.645173,-2757.943793,3701.029710
1379.560616,-11843.295072,-1225.752797,3108.864956
1379.560927,-7476.080014,612.876398,2368.659014
1379.561239,-4885.359217,-1072.533697,296.082377
1379.561550,-3108.864956,-3830.477490,222.061783
1379.561861,-3330.926739,-4979.620737,-1036.288319
1379.562173,-4441.235652,-1225.752797,-296.082377
1379.562484,-6735.874072,919.314598,1184.329507
1379.562795,-10658.965565,536.266849,1628.453072
1379.563107,-13915.871710,-1608.800546,2886.803174
1379.563418,-15618.345376,-2145.067394,3182.885551
1379.563729,-14359.995275,229.828649,2812.782580
1379.564041,-11843.295072,2681.334243,1184.329507
1379.564352,-8290.306550,3370.820191,-0.000000
1379.564663,-5921.647536,1072.533697,-1998.556043
1379.564975,-4367.215058,-2451.505594,-1258.350101
1379.565286,-4589.276840,-2451.505594,-814.226536
1379.565597,-5847.626942,-459.657299,-370.102971
1379.565909,-8068.244768,1072.533697,-74.020594
1379.566220,-10881.027347,-229.828649,740.205942
1379.566531,-12657.521608,-2987.772442,1628.453072
1379.566843,-13619.789333,-3140.991542,1998.556043
1379.567154,-13545.768739,-2145.067394,2146.597232
1379.567465,-12583.501014,766.095498,1110.308913
1379.567777,-9844.739029,995.924147,592.164754
1379.568088,-6513.812290,-1149.143247,-888.247130
1379.568399,-4737.318029,-3677.258390,-962.267725
1379.568711,-4071.132681,-3217.601092,-1332.370696
1379.569022,-5699.585753,536.266849,-2072.576638
1379.569333,-7550.100608,3600.648841,-518.144159
1379.569645,-10955.047942,2834.553343,592.164754
1379.569956,-13693.809927,1455.581446,2072.576638
1379.570268,-14211.954086,1149.143247,2442.679609
1379.570579,-13175.665768,2681.334243,1850.514855
1379.570890,-11029.068536,5362.668486,-444.123565
1379.571202,-6587.832884,6281.983084,-1554.432478
1379.571513,-4663.297435,3677.258390,-3552.988522
1379.571824,-2886.803174,0.000000,-3256.906145
1379.572136,-3478.967927,-459.657299,-2442.679609
1379.572447,-4959.379811,1915.238745,-1702.473667
1379.572758,-7254.018232,3140.991542,444.123565
1379.573070,-11621.233289,919.314598,814.226536
1379.573381,-13323.706956,-1225.752797,2590.720797
1379.573692,-13471.748144,-1225.752797,2960.823768
1379.574004,-12509.480420,459.657299,2368.659014
1379.574315,-10881.027347,1608.800546,962.267725
1379.574626,-7179.997637,1302.362347,-0.000000
1379.574938,-5625.565159,-1915.238745,-1702.473667
1379.575249,-4367.215058,-4060.306139,-1036.288319
1379.575560,-5181.441594,-2987.772442,-1184.329507
1379.575872,-7031.956449,536.266849,-0.000000
1379.576183,-9696.697840,995.924147,1554.432478
1379.576494,-12509.480420,-689.485948,2886.803174
1379.576806,-13989.892304,-1378.971896,3775.050304
1379.577117,-13027.624579,-306.438199,3627.009116
1379.577428,-11843.295072,1072.533697,2664.741391
1379.577740,-8512.368333,2451.505594,1110.308913
1379.578051,-5551.544565,2145.067394,-148.041188
1379.578362,-4293.194464,-919.314598,-1258.350101
1379.578674,-3256.906145,-2834.553343,-592.164754
1379.578985,-4589.276840,-2987.772442,-592.164754
1379.579296,-7402.059420,-383.047749,-0.000000
1379.579608,-10955.047942,-995.924147,1184.329507
1379.579919,-13767.830521,-1532.190996,2368.659014
1379.580230,-14878.139434,-2145.067394,3108.864956
1379.580542,-14137.933492,-1608.800546,3478.967927
1379.580853,-12213.398043,-919.314598,2812.782580
1379.581165,-9252.574275,0.000000,1702.473667
1379.581476,-5329.482782,0.000000,592.164754
1379.581787,-3849.070898,-2451.505594,-666.185348
1379.582099,-2812.782580,-3294.210641,-0.000000
1379.582410,-4145.153275,-2604.724693,-1110.308913
1379.582721,-7254.018232,-306.438199,-592.164754
1379.583033,-9622.677246,1149.143247,518.144159
1379.583344,-12657.521608,-689.485948,2220.617826
1379.583655,-14359.995275,-2221.676944,3182.885551
1379.583967,-14730.098246,-2298.286494,2812.782580
1379.584278,-13249.686362,1149.143247,2220.617826
1379.584589,-9178.553681,3600.648841,740.205942
1379.584901,-5995.668130,3524.039291,-1776.494261
1379.585212,-3701.029710,76.609550,-3182.885551
1379.585523,-2516.700203,-1149.143247,-3256.906145
1379.585835,-4367.215058,-153.219100,-2738.761985
1379.586146,-6587.832884,1608.800546,-2072.576638
1379.586458,-10584.944971,1915.238745,-814.226536
1379.586769,-13545.768739,-842.705048,962.267725
1379.587080,-14582.057057,-1149.143247,2368.659014
1379.587392,-14952.160028,-536.266849,2960.823768
1379.587703,-13027.624579,1991.848295,2368.659014
1379.588014,-9252.574275,2604.724693,740.205942
1379.588326,-5847.626942,2451.505594,-814.226536
1379.588637,-3330.926739,1302.362347,-1998.556043
1379.588948,-2664.741391,383.047749,-2812.782580
1379.589260,-4589.276840,2374.896044,-2886.803174
1379.589571,-6883.915261,3983.696590,-1184.329507
1379.589882,-9992.780217,3524.039291,-0.000000
1379.590194,-14063.912898,766.095498,2146.597232
1379.590505,-16210.510130,0.000000,3627.009116
1379.590816,-14952.160028,1225.752797,3256.906145
1379.591128,-11251.130318,3753.867940,1702.473667
1379.591439,-7476.080014,4213.525239,-74.020594
1379.591751,-4663.297435,2451.505594,-1332.370696
1379.592062,-2738.761985,-689.485948,-1480.411884
1379.592373,-3330.926739,-1762.019645,-814.226536
1379.592685,-4959.379811,-1149.143247,222.061783
1379.592996,-7550.100608,0.000000,1850.514855
1379.593307,-10436.903782,-459.657299,2072.576638
1379.593619,-12731.542202,-2987.772442,2368.659014
1379.593930,-13545.768739,-3370.820191,3182.885551
1379.594241,-12731.542202,-1455.581446,3108.864956
1379.594553,-11251.130318,842.705048,2220.617826
1379.594864,-8068.244768,459.657299,1776.494261
1379.595175,-5329.482782,-1685.410096,444.123565
1379.595487,-4145.153275,-3447.429741,296.082377
1379.595798,-3923.091493,-3064.381992,-370.102971
1379.596109,-5033.400406,-1915.238745,-296.082377
1379.596421,-7846.182985,0.000000,1406.391290
1379.596732,-10584.944971,-689.485948,2146.597232
1379.597044,-13027.624579,-2604.724693,3330.926739
1379.597355,-14508.036463,-3447.429741,3775.050304
1379.597666,-13841.851115,-1302.362347,3256.906145
1379.597978,-10807.006753,1608.800546,1998.556043
1379.598289,-6883.915261,2528.115143,-0.000000
1379.598600,-5181.441594,-229.828649,-1924.535449
1379.598912,-4071.132681,-2298.286494,-1998.556043
1379.599223,-4219.173869,-2451.505594,-1332.370696
1379.599534,-5625.565159,-153.219100,-1110.308913
1379.599846,-7772.162391,459.657299,-444.123565
1379.600157,-11103.089130,-1225.752797,222.061783
1379.600468,-13545.768739,-3064.381992,1480.411884
1379.600780,-14804.118840,-3294.210641,1924.535449
1379.601091,-14063.912898,-1455.581446,2220.617826
1379.601402,-13027.624579,689.485948,962.267725
1379.601714,-8882.471304,689.485948,518.144159
1379.602025,-6661.853478,-1915.238745,-962.267725
1379.602337,-4885.359217,-2911.162892,-1554.432478
1379.602648,-3552.988522,-1685.410096,-2072.576638
1379.602959,-5995.668130,1991.848295,-2590.720797
1379.603271,-8438.347739,3370.820191,-1554.432478
1379.603582,-11103.089130,2374.896044,-148.041188
1379.603893,-13767.830521,0.000000,1776.494261
1379.604205,-15914.427753,459.657299,2146.597232
1379.604516,-14878.139434,2834.553343,2294.638420
1379.604827,-11103.089130,5056.230287,1036.288319
1379.605139,-6587.832884,4519.963438,-518.144159
1379.605450,-4219.173869,1685.410096,-1850.514855
1379.605761,-2368.659014,-153.219100,-2368.659014
1379.606073,-2812.782580,459.657299,-2442.679609
1379.606384,-5033.400406,3600.648841,-2146.597232
1379.606695,-7846.182985,4903.011187,-1036.288319
1379.607007,-11843.295072,2604.724693,296.082377
1379.607318,-13175.665768,-459.657299,1998.556043
1379.607630,-13397.727550,-919.314598,2442.679609
1379.607941,-11917.315666,919.314598,2516.700203
1379.608252,-9178.553681,1991.848295,1480.411884
1379.608564,-6587.832884,459.657299,-74.020594
1379.608875,-5033.400406,-2987.772442,-814.226536
1379.609186,-3478.967927,-4213.525239,-666.185348
1379.609498,-4219.173869,-2987.772442,-444.123565
1379.609809,-7031.956449,-459.657299,666.185348
1379.610120,-9992.780217,-229.828649,1998.556043
1379.610432,-12287.418637,-1532.190996,2664.741391
1379.610743,-13841.851115,-2757.943793,3849.070898
1379.611054,-13545.768739,-1225.752797,4145.153275
1379.611366,-12879.583391,919.314598,2664.741391
1379.611677,-10066.800811,2604.724693,1406.391290
1379.611988,-6143.709319,2451.505594,-296.082377
1379.612300,-4145.153275,-459.657299,-518.144159
1379.612611,-3701.029710,-2374.896044,-592.164754
1379.612923,-4367.215058,-2451.505594,-148.041188
1379.613234,-6069.688724,-1225.752797,296.082377
1379.613545,-8142.265362,-229.828649,1554.432478
1379.613857,-11399.171507,-1991.848295,2368.659014
1379.614168,-14137.933492,-3830.477490,2516.700203
1379.614479,-14582.057057,-3217.601092,3256.906145
1379.614791,-13915.871710,-919.314598,2664.741391
1379.615102,-10807.006753,0.000000,1480.411884
1379.615413,-7254.018232,-919.314598,-0.000000
1379.615725,-5773.606348,-2681.334243,-518.144159
1379.616036,-4367.215058,-3907.087040,-370.102971
1379.616347,-3478.967927,-2374.896044,-888.247130
1379.616659,-5847.626942,-383.047749,-74.020594
1379.616970,-9474.636058,-306.438199,592.164754
1379.617282,-12213.398043,-689.485948,1702.473667
1379.617593,-14508.036463,-766.095498,1406.391290
1379.617904,-14730.098246,1149.143247,1850.514855
1379.618216,-13175.665768,3600.648841,814.226536
1379.618527,-9622.677246,3447.429741,-370.102971
1379.618838,-7105.977043,1762.019645,-666.185348
1379.619150,-4515.256246,-1838.629195,-1406.391290
1379.619461,-4219.173869,-2298.286494,-1850.514855
1379.619772,-4663.297435,-383.047749,-2442.679609
1379.620084,-5255.462188,1455.581446,-1850.514855
1379.620395,-8290.306550,1455.581446,-1258.350101
1379.620706,-10955.047942,0.000000,814.226536
1379.621018,-14359.995275,-919.314598,1184.329507
1379.621329,-15544.324782,842.705048,1776.494261
1379.621640,-14434.015869,3753.867940,592.164754
1379.621952,-10955.047942,4826.401637,-0.000000
1379.622263,-6513.812290,2068.457845,-1406.391290
1379.622575,-3849.070898,-612.876398,-2368.659014
1379.622886,-3034.844362,-919.314598,-2442.679609
1379.623197,-3849.070898,842.705048,-1776.494261
1379.623509,-6587.832884,2298.286494,-518.144159
1379.623820,-10658.965565,1762.019645,1332.370696
1379.624131,-13767.830521,-459.657299,2812.782580
1379.624443,-14656.077652,-1149.143247,3256.906145
1379.624754,-13767.830521,612.876398,2738.761985
1379.625065,-10362.883188,3907.087040,1258.350101
1379.625377,-6587.832884,3753.867940,-296.082377
1379.625688,-5551.544565,229.828649,-1184.329507
1379.625999,-3701.029710,-2145.067394,-1110.308913
1379.626311,-3997.112087,-2298.286494,-1036.288319
1379.626622,-5699.585753,-459.657299,-296.082377
1379.626933,-7476.080014,1149.143247,1332.370696
1379.627245,-9992.780217,-766.095498,2146.597232
1379.627556,-11991.336260,-3753.867940,3404.947333
1379.627868,-13249.686362,-4290.134789,4219.173869
1379.628179,-12953.603985,-2374.896044,3849.070898
1379.628490,-11473.192101,306.438199,2368.659014
1379.628802,-7846.182985,919.314598,1036.288319
1379.629113,-5847.626942,-1608.800546,-222.061783
1379.629424,-3923.091493,-3830.477490,-74.020594
1379.629736,-3552.988522,-3907.087040,-0.000000
1379.630047,-6513.812290,-919.314598,-74.020594
1379.630358,-8956.491898,76.609550,1850.514855
1379.630670,-11547.212695,0.000000,2220.617826
1379.630981,-13397.727550,-1608.800546,2664.741391
1379.631292,-14063.912898,-1378.971896,3182.885551
1379.631604,-12435.459826,842.705048,2738.761985
1379.631915,-10807.006753,3064.381992,888.247130
1379.632226,-7698.141797,2451.505594,-296.082377
1379.632538,-5403.503377,0.000000,-1110.308913
1379.632849,-4071.132681,-3064.381992,-1110.308913
1379.633161,-4071.132681,-3064.381992,-1036.288319
1379.633472,-5847.626942,-1455.581446,-1036.288319
1379.633783,-7772.162391,-153.219100,-296.082377
1379.634095,-11473.192101,-995.924147,1480.411884
1379.634406,-13545.768739,-2451.505594,2368.659014
1379.634717,-14730.098246,-2451.505594,2146.597232
1379.635029,-13397.727550,536.266849,1628.453072
1379.635340,-11621.233289,2681.334243,-296.082377
1379.635651,-7105.977043,2911.162892,-1628.453072
1379.635963,-4219.173869,459.657299,-2368.659014
1379.636274,-3330.926739,-1991.848295,-2368.659014
1379.636585,-4145.153275,-1608.800546,-2072.576638
1379.636897,-6957.935855,1455.581446,-1480.411884
1379.637208,-9326.594869,3447.429741,-444.123565
1379.637519,-12509.480420,2068.457845,370.102971
1379.637831,-14434.015869,1455.581446,1110.308913
1379.638142,-15396.283594,1378.971896,2072.576638
1379.638454,-13915.871710,3983.696590,888.247130
1379.638765,-10140.821405,5209.449386,-0.000000
1379.639076,-6735.874072,4060.306139,-1406.391290
1379.639388,-4219.173869,459.657299,-2220.617826
1379.639699,-3404.947333,-1302.362347,-2368.659014
1379.640010,-3404.947333,-1302.362347,-2146.597232
1379.640322,-5921.647536,2221.676944,-1406.391290
1379.640633,-9474.636058,1762.019645,-148.041188
1379.640944,-12435.459826,-536.266849,1036.288319
1379.641256,-14508.036463,-2451.505594,2886.803174
1379.641567,-14508.036463,-2298.286494,3997.112087
1379.641878,-12435.459826,-612.876398,2960.823768
1379.642190,-8882.471304,1302.362347,1332.370696
1379.642501,-5995.668130,995.924147,-444.123565
1379.642812,-4293.194464,-1915.238745,-74.020594
1379.643124,-3775.050304,-2911.162892,-1110.308913
1379.643435,-4663.297435,-919.314598,-740.205942
1379.643747,-6513.812290,1455.581446,370.102971
1379.644058,-8512.368333,1762.019645,1036.288319
1379.644369,-10881.027347,-995.924147,2442.679609
1379.644681,-13027.624579,-2374.896044,2664.741391
1379.644992,-13989.892304,-1378.971896,3330.926739
1379.645303,-12953.603985,1149.143247,3108.864956
1379.645615,-9696.697840,3140.991542,1924.535449
1379.645926,-7031.956449,1072.533697,592.164754
1379.646237,-5107.421000,-3217.601092,-0.000000
1379.646549,-4663.297435,-3677.258390,-592.164754
1379.646860,-4515.256246,-1455.581446,-370.102971
1379.647171,-5551.544565,1532.190996,-148.041188
1379.647483,-8438.347739,1455.581446,1332.370696
1379.647794,-12361.439231,-2068.457845,2516.700203
1379.648105,-14137.933492,-3524.039291,3404.947333
1379.648417,-14211.954086,-1915.238745,3701.029710
1379.648728,-12731.542202,1685.410096,2516.700203
1379.649040,-9178.553681,2757.943793,1110.308913
1379.649351,-6291.750507,383.047749,-592.164754
1379.649662,-4293.194464,-2987.772442,-1776.494261
1379.649974,-3404.947333,-3064.381992,-1554.432478
1379.650285,-4589.276840,-1532.190996,-888.247130
1379.650596,-7994.224174,842.705048,740.205942
1379.650908,-11325.150913,612.876398,1702.473667
1379.651219,-13175.665768,-1149.143247,2664.741391
1379.651530,-13915.871710,-1685.410096,3330.926739
1379.651842,-12953.603985,0.000000,2442.679609
1379.652153,-10214.842000,3447.429741,592.164754
1379.652464,-7254.018232,3753.867940,-1554.432478
1379.652776,-4663.297435,1685.410096,-2590.720797
1379.653087,-3775.050304,-1072.533697,-2442.679609
1379.653398,-5033.400406,-1685.410096,-2072.576638
1379.653710,-6069.688724,842.705048,-1406.391290
1379.654021,-8142.265362,1915.238745,-222.061783
1379.654333,-10732.986159,2221.676944,592.164754
1379.654644,-12953.603985,-229.828649,962.267725
1379.654955,-14508.036463,-1302.362347,1850.514855
1379.655267,-14063.912898,153.219100,1998.556043
1379.655578,-12213.398043,2757.943793,370.102971
1379.655889,-8142.265362,2681.334243,-222.061783
1379.656201,-5625.565159,-153.219100,-2072.576638
1379.656512,-4071.132681,-2757.943793,-1776.494261
1379.656823,-3849.070898,-3753.867940,-2368.659014
1379.657135,-5995.668130,229.828649,-1850.514855
1379.657446,-9326.594869,2451.505594,-222.061783
1379.657757,-12731.542202,1991.848295,1184.329507
1379.658069,-14804.118840,153.219100,1776.494261
1379.658380,-15100.201217,689.485948,2220.617826
1379.658691,-13101.645173,2068.457845,1998.556043
1379.659003,-10584.944971,3830.477490,740.205942
1379.659314,-6957.935855,3524.039291,-296.082377
1379.659626,-4589.276840,612.876398,-1628.453072
1379.659937,-2886.803174,-2987.772442,-1406.391290
1379.660248,-4071.132681,-3830.477490,-1332.370696
1379.660560,-6365.771101,-1225.752797,-444.123565
1379.660871,-8882.471304,766.095498,666.185348
1379.661182,-11399.171507,-383.047749,2368.659014
1379.661494,-12583.501014,-2604.724693,3701.029710
1379.661805,-14359.995275,-2911.162892,3775.050304
1379.662116,-12509.480420,-1072.533697,4071.132681
1379.662428,-9326.594869,1149.143247,2368.659014
1379.662739,-5995.668130,2145.067394,370.102971
1379.663050,-4145.153275,-153.219100,-148.041188
1379.663362,-3627.009116,-3064.381992,-592.164754
1379.663673,-3923.091493,-3447.429741,-518.144159
1379.663984,-5403.503377,76.609550,740.205942
1379.664296,-8734.430116,1532.190996,1554.432478
1379.664607,-11695.253884,-153.219100,2442.679609
1379.664919,-14211.954086,-2221.676944,3330.926739
1379.665230,-14137.933492,-1532.190996,3849.070898
1379.665541,-12509.480420,1378.971896,3182.885551
1379.665853,-10140.821405,3907.087040,2368.659014
1379.666164,-7031.956449,2834.553343,-0.000000
1379.666475,-4589.276840,0.000000,-962.267725
1379.666787,-2516.700203,-1838.629195,-814.226536
1379.667098,-2960.823768,-1455.581446,-1258.350101
1379.667409,-5477.523971,0.000000,-814.226536
1379.667721,-8364.327145,0.000000,518.144159
1379.668032,-11695.253884,-1608.800546,1332.370696
1379.668343,-13841.851115,-2834.553343,2146.597232
1379.668655,-15248.242405,-2374.896044,3034.844362
1379.668966,-13915.871710,76.609550,1776.494261
1379.669277,-11029.068536,995.924147,962.267725
1379.669589,-7254.018232,919.314598,-888.247130
1379.669900,-5255.462188,-1915.238745,-1406.391290
1379.670212,-3923.091493,-2757.943793,-1998.556043
1379.670523,-3552.988522,-1302.362347,-2146.597232
1379.670834,-6069.688724,1455.581446,-1702.473667
1379.671146,-8956.491898,2681.334243,-74.020594
1379.671457,-11917.315666,1378.971896,592.164754
1379.671768,-14656.077652,0.000000,1628.453072
1379.672080,-15174.221811,1532.190996,1998.556043
1379.672391,-13767.830521,3907.087040,1258.350101
1379.672702,-10288.862594,4673.182538,-296.082377
1379.673014,-7179.997637,3217.601092,-2294.638420
1379.673325,-4589.276840,459.657299,-3552.988522
1379.673636,-3108.864956,-383.047749,-2664.741391
1379.673948,-4293.194464,153.219100,-2516.700203
1379.674259,-7105.977043,2068.457845,-1480.411884
1379.674570,-10140.821405,1685.410096,-222.061783
1379.674882,-13027.624579,-1072.533697,1332.370696
1379.675193,-14952.160028,-2221.676944,1924.535449
1379.675505,-14878.139434,-1149.143247,2368.659014
1379.675816,-12657.521608,1225.752797,1554.432478
1379.676127,-8364.327145,766.095498,1036.288319
1379.676439,-4959.379811,76.609550,-222.061783
1379.676750,-4737.318029,-3064.381992,-444.123565
1379.677061,-3923.091493,-4136.915689,-296.082377
1379.677373,-4663.297435,-1225.752797,-666.185348
1379.677684,-6735.874072,2145.067394,888.247130
1379.677995,-8956.491898,1608.800546,1184.329507
1379.678307,-11991.336260,-842.705048,2146.597232
1379.678618,-13027.624579,-1072.533697,3108.864956
1379.678929,-12361.439231,229.828649,3404.947333
1379.679241,-11843.295072,2298.286494,2442.679609
1379.679552,-8882.471304,3370.820191,1406.391290
1379.679864,-5995.668130,1225.752797,-222.061783
1379.680175,-3404.947333,-2298.286494,-148.041188
1379.680486,-2812.782580,-2987.772442,-592.164754
1379.680798,-4071.132681,-2068.457845,-962.267725
1379.681109,-6439.791695,-153.219100,370.102971
1379.681421,-9252.574275,-1608.800546,1184.329507
1379.681732,-12139.377449,-3830.477490,2664.741391
1379.682044,-14211.954086,-4290.134789,3182.885551
1379.682355,-14211.954086,-2604.724693,3627.009116
1379.682666,-12361.439231,229.828649,2590.720797
1379.682978,-9030.512492,689.485948,1628.453072
1379.683289,-7772.162391,-1608.800546,-74.020594
1379.683601,-5329.482782,-3600.648841,296.082377
1379.683912,-4441.235652,-3600.648841,-370.102971
1379.684224,-5107.421000,-1149.143247,-74.020594
1379.684535,-6513.812290,1378.971896,74.020594
1379.684846,-10140.821405,689.485948,370.102971
1379.685158,-12361.439231,-1302.362347,1554.432478
1379.685469,-13397.727550,-1149.143247,1628.453072
1379.685781,-13989.892304,1762.019645,1628.453072
1379.686092,-12361.439231,3140.991542,740.205942
1379.686404,-9548.656652,3217.601092,-740.205942
1379.686715,-7105.977043,766.095498,-1332.370696
1379.687026,-4515.256246,-2145.067394,-1554.432478
1379.687338,-3256.906145,-2451.505594,-1406.391290
1379.687649,-5033.400406,-995.924147,-1776.494261
1379.687961,-6883.915261,1225.752797,-518.144159
1379.688272,-9770.718434,383.047749,-296.082377
1379.688584,-12435.459826,-919.314598,666.185348
1379.688895,-14656.077652,-1072.533697,1480.411884
1379.689206,-14952.160028,536.266849,962.267725
1379.689518,-13101.645173,3830.477490,222.061783
1379.689829,-9252.574275,4749.792088,-962.267725
1379.690141,-6661.853478,1838.629195,-1702.473667
1379.690452,-4293.194464,-1685.410096,-1776.494261
1379.690764,-3923.091493,-689.485948,-1924.535449
1379.691075,-5107.421000,2757.943793,-1702.473667
1379.691386,-6735.874072,4443.353888,-740.205942
1379.691698,-9844.739029,2604.724693,592.164754
1379.692009,-12805.562797,-459.657299,1998.556043
1379.692321,-14508.036463,-1378.971896,2294.638420
1379.692632,-12953.603985,1608.800546,2146.597232
1379.692944,-10510.924376,4060.306139,592.164754
1379.693255,-7550.100608,2911.162892,-666.185348
1379.693566,-5181.441594,-1455.581446,-2072.576638
1379.693878,-3997.112087,-3064.381992,-1776.494261
1379.694189,-4441.235652,-2145.067394,-1702.473667
1379.694501,-6513.812290,0.000000,148.041188
1379.694812,-8660.409521,766.095498,1776.494261
1379.695124,-11843.295072,-1838.629195,2590.720797
1379.695435,-13027.624579,-3447.429741,3849.070898
1379.695746,-14063.912898,-1608.800546,3552.988522
1379.696058,-12139.377449,766.095498,2886.803174
1379.696369,-8808.450710,1685.410096,1332.370696
1379.696681,-6587.832884,-229.828649,-0.000000
1379.696992,-4219.173869,-2298.286494,-296.082377
1379.697304,-3775.050304,-3753.867940,-148.041188
1379.697615,-5773.606348,-3447.429741,-222.061783
1379.697926,-6809.894666,-1302.362347,1554.432478
1379.698238,-9918.759623,0.000000,888.247130
1379.698549,-12361.439231,-1762.019645,3034.844362
1379.698861,-13323.706956,-2374.896044,3330.926739
1379.699172,-12805.562797,-842.705048,3701.029710
1379.699484,-11917.315666,1378.971896,3034.844362
1379.699795,-8956.491898,2221.676944,1554.432478
1379.700106,-5625.565159,1532.190996,-0.000000
1379.700418,-4959.379811,-919.314598,-1406.391290
1379.700729,-4367.215058,-2298.286494,-222.061783
1379.701041,-4219.173869,-2451.505594,-666.185348
1379.701352,-6957.935855,-766.095498,-370.102971
1379.701664,-9474.636058,-306.438199,814.226536
1379.701975,-12287.418637,-2757.943793,1850.514855
1379.702286,-14359.995275,-2987.772442,2294.638420
1379.702598,-14285.974681,-1532.190996,2886.803174
1379.702909,-13915.871710,995.924147,1554.432478
1379.703221,-10436.903782,2145.067394,962.267725
1379.703532,-6883.915261,1762.019645,-0.000000
1379.703844,-4145.153275,-2221.676944,-740.205942
1379.704155,-2442.679609,-3983.696590,-1480.411884
1379.704466,-4367.215058,-1149.143247,-2664.741391
1379.704778,-6883.915261,2757.943793,-3034.844362
1379.705089,-9178.553681,3370.820191,-1702.473667
1379.705401,-12805.562797,1072.533697,-296.082377
1379.705712,-15026.180623,-612.876398,1480.411884
1379.706024,-15248.242405,1149.143247,2220.617826
1379.706335,-13841.851115,4903.011187,1258.350101
1379.706646,-10436.903782,5515.887586,444.123565
1379.706958,-6143.709319,3524.039291,-1628.453072
1379.707269,-3330.926739,229.828649,-2368.659014
1379.707581,-2664.741391,-229.828649,-3034.844362
1379.707892,-4293.194464,612.876398,-3034.844362
1379.708204,-5921.647536,3294.210641,-1850.514855
1379.708515,-9770.718434,2374.896044,-444.123565
1379.708826,-14211.954086,-1225.752797,1184.329507
1379.709138,-15322.262999,-2528.115143,2664.741391
1379.709449,-14730.098246,-536.266849,2664.741391
1379.709761,-12731.542202,2451.505594,1776.494261
1379.710072,-9252.574275,2528.115143,888.247130
1379.710384,-4959.379811,-153.219100,-814.226536
1379.710695,-3108.864956,-2298.286494,-518.144159
1379.711006,-3330.926739,-3370.820191,-1036.288319
1379.711318,-3923.091493,-1225.752797,-962.267725
1379.711629,-6143.709319,1685.410096,-0.000000
1379.711941,-9770.718434,1072.533697,1184.329507
1379.712252,-13471.748144,-2528.115143,2368.659014
1379.712564,-15618.345376,-2528.115143,3478.967927
1379.712875,-14508.036463,-459.657299,4145.153275
1379.713186,-11991.336260,1608.800546,2442.679609
1379.713498,-8808.450710,2221.676944,1406.391290
1379.713809,-5847.626942,1149.143247,-518.144159
1379.714121,-3256.906145,-1608.800546,-1110.308913
1379.714432,-3330.926739,-2681.334243,-296.082377
1379.714744,-5033.400406,-842.705048,1110.308913
1379.715055,-7402.059420,229.828649,1554.432478
1379.715366,-10732.986159,-995.924147,2812.782580
1379.715678,-13915.871710,-3907.087040,3330.926739
1379.715989,-14359.995275,-3370.820191,3478.967927
1379.716301,-12361.439231,-459.657299,2960.823768
1379.716612,-11547.212695,1532.190996,1998.556043
1379.716924,-7920.203579,1838.629195,1406.391290
1379.717235,-6439.791695,-306.438199,-0.000000
1379.717546,-4441.235652,-3600.648841,-0.000000
1379.717858,-3478.967927,-2528.115143,-0.000000
1379.718169,-4737.318029,0.000000,-444.123565
1379.718481,-6735.874072,1762.019645,-0.000000
1379.718792,-9770.718434,995.924147,518.144159
1379.719104,-11695.253884,-1072.533697,1628.453072
1379.719415,-12953.603985,-383.047749,2294.638420
1379.719726,-13841.851115,1608.800546,2220.617826
1379.720038,-11473.192101,2911.162892,1480.411884
1379.720349,-8512.368333,1838.629195,296.082377
1379.720661,-5921.647536,-766.095498,-1332.370696
1379.720972,-4515.256246,-2221.676944,-1776.494261
1379.721284,-4959.379811,-1532.190996,-2294.638420
1379.721595,-6143.709319,919.314598,-1850.514855
1379.721906,-8068.244768,2604.724693,-1480.411884
1379.722218,-10140.821405,1302.362347,-444.123565
1379.722529,-12805.562797,-612.876398,296.082377
1379.722841,-13841.851115,0.000000,1184.329507
1379.723152,-13249.686362,2451.505594,1184.329507
1379.723464,-11473.192101,4060.306139,814.226536
1379.723775,-8068.244768,2757.943793,-0.000000
1379.724086,-6957.935855,-995.924147,-1406.391290
1379.724398,-4737.318029,-2374.896044,-1406.391290
1379.724709,-3923.091493,-2068.457845,-2886.803174
1379.725021,-5403.503377,1378.971896,-2738.761985
1379.725332,-9178.553681,3140.991542,-1776.494261
1379.725644,-12583.501014,1838.629195,-0.000000
1379.725955,-15174.221811,-383.047749,1628.453072
1379.726266,-15692.365970,-383.047749,3775.050304
1379.726578,-13841.851115,2145.067394,2960.823768
1379.726889,-11177.109724,2604.724693,1554.432478
1379.727201,-5847.626942,1915.238745,-0.000000
1379.727512,-3330.926739,-383.047749,-1776.494261
1379.727824,-2516.700203,-2068.457845,-2072.576638
1379.728135,-3923.091493,-1149.143247,-1850.514855
1379.728446,-6587.832884,842.705048,-592.164754
1379.728758,-9474.636058,1378.971896,1258.350101
1379.729069,-12509.480420,-1225.752797,2368.659014
1379.729381,-14285.974681,-3677.258390,3182.885551
1379.729692,-13323.706956,-2221.676944,4663.297435
1379.730004,-11769.274478,-1149.143247,3478.967927
1379.730315,-8586.388927,0.000000,2368.659014
1379.730626,-5847.626942,-229.828649,296.082377
1379.730938,-4219.173869,-2834.553343,-148.041188
1379.731249,-3330.926739,-4749.792088,-0.000000
1379.731561,-4737.318029,-2834.553343,-740.205942
1379.731872,-6661.853478,612.876398,1184.329507
1379.732184,-9844.739029,153.219100,2072.576638
1379.732495,-12065.356855,-2068.457845,3849.070898
1379.732806,-13989.892304,-2604.724693,3701.029710
1379.733118,-14211.954086,-612.876398,3849.070898
1379.733429,-12139.377449,3753.867940,2072.576638
1379.733741,-9252.574275,4979.620737,-222.061783
1379.734052,-5699.585753,4443.353888,-1776.494261
1379.734364,-2664.741391,1225.752797,-2294.638420
1379.734675,-3256.906145,-2681.334243,-1406.391290
1379.734986,-5107.421000,-1991.848295,-888.247130
1379.735298,-7105.977043,689.485948,148.041188
1379.735609,-9548.656652,459.657299,962.267725
1379.735921,-12435.459826,-2604.724693,1998.556043
1379.736232,-13101.645173,-3753.867940,2368.659014
1379.736544,-12879.583391,-2757.943793,2220.617826
1379.736855,-11991.336260,76.609550,2368.659014
1379.737167,-9178.553681,842.705048,1554.432478
1379.737478,-6661.853478,-2068.457845,740.205942
1379.737789,-5625.565159,-4903.011187,-518.144159
1379.738101,-4737.318029,-4519.963438,-1332.370696
1379.738412,-4589.276840,-612.876398,-2368.659014
1379.738724,-7846.182985,3370.820191,-2146.597232
1379.739035,-10732.986159,3983.696590,-888.247130
1379.739347,-13841.851115,612.876398,518.144159
1379.739658,-15840.407159,229.828649,2516.700203
1379.739969,-14582.057057,2757.943793,3330.926739
1379.740281,-11917.315666,4749.792088,1554.432478
1379.740592,-7179.997637,4826.401637,-0.000000
1379.740904,-4145.153275,2221.676944,-2516.700203
1379.741215,-1110.308913,0.000000,-4589.276840
1379.741527,-2738.761985,842.705048,-4515.256246
1379.741838,-5551.544565,1838.629195,-2812.782580
1379.742149,-8660.409521,2068.457845,-1628.453072
1379.742461,-13249.686362,76.609550,370.102971
1379.742772,-15322.262999,-1532.190996,2294.638420
1379.743084,-15322.262999,-1225.752797,2812.782580
1379.743395,-14582.057057,-612.876398,3182.885551
1379.743707,-12435.459826,689.485948,2516.700203
1379.744018,-8068.244768,1378.971896,814.226536
1379.744329,-4959.379811,0.000000,-666.185348
1379.744641,-3701.029710,-2145.067394,-1332.370696
1379.744952,-2886.803174,-2451.505594,-1332.370696
1379.745264,-4293.194464,-1072.533697,-1406.391290
1379.745575,-7105.977043,1532.190996,-222.061783
1379.745887,-11103.089130,153.219100,1184.329507
1379.746198,-13767.830521,-1302.362347,3108.864956
1379.746509,-14730.098246,-1838.629195,3923.091493
1379.746821,-13545.768739,-459.657299,3997.112087
1379.747132,-10288.862594,1608.800546,2220.617826
1379.747444,-6217.729913,2528.115143,-0.000000
1379.747755,-3182.885551,919.314598,-1332.370696
1379.748067,0.000000,-2221.676944,-1258.350101
1379.748378,-1628.453072,-3600.648841,-1776.494261
1379.748689,-4811.338623,-689.485948,-518.144159
1379.749001,-8586.388927,1149.143247,518.144159
1379.749312,-12435.459826,0.000000,1628.453072
1379.749624,-15100.201217,-2528.115143,3182.885551
1379.749935,-15988.448347,-2451.505594,3552.988522
1379.750247,-14730.098246,-383.047749,3330.926739
1379.750558,-12213.398043,1149.143247,2590.720797
1379.750869,-7846.182985,919.314598,962.267725
1379.751181,-4885.359217,-1378.971896,-222.061783
1379.751492,-4293.194464,-3064.381992,-962.267725
1379.751804,-3108.864956,-2911.162892,-962.267725
1379.752115,-5107.421000,306.438199,-1110.308913
1379.752427,-7624.121203,2298.286494,296.082377
1379.752738,-10658.965565,76.609550,1554.432478
1379.753049,-13175.665768,-2834.553343,2442.679609
1379.753361,-14211.954086,-2145.067394,2664.741391
1379.753672,-13323.706956,689.485948,2220.617826
1379.753984,-10658.965565,2374.896044,1406.391290
1379.754295,-7920.203579,2145.067394,-222.061783
1379.754607,-5847.626942,-383.047749,-1406.391290
1379.754918,-4589.276840,-2834.553343,-1628.453072
1379.755229,-4663.297435,-2221.676944,-1036.288319
1379.755541,-5699.585753,229.828649,-740.205942
1379.755852,-8956.491898,612.876398,-222.061783
1379.756164,-11325.150913,-536.266849,518.144159
1379.756475,-12731.542202,-919.314598,888.247130
1379.756787,-13693.809927,612.876398,1924.535449
1379.757098,-13471.748144,2068.457845,1850.514855
1379.757409,-11473.192101,3140.991542,1702.473667
1379.757721,-7624.121203,2068.457845,222.061783
1379.758032,-5255.462188,-689.485948,-888.247130
1379.758344,-3552.988522,-2145.067394,-1480.411884
1379.758655,-3256.906145,-995.924147,-2294.638420
1379.758967,-4959.379811,2451.505594,-2442.679609
1379.759278,-7920.203579,3753.867940,-1554.432478
1379.759589,-12287.418637,1838.629195,-444.123565
1379.759901,-14656.077652,153.219100,888.247130
1379.760212,-14952.160028,459.657299,2368.659014
1379.760524,-13693.809927,2145.067394,2738.761985
1379.760835,-10140.821405,2987.772442,1850.514855
1379.761147,-6957.935855,1915.238745,-222.061783
1379.761458,-3627.009116,0.000000,-1110.308913
1379.761769,-2368.659014,-2068.457845,-1036.288319
1379.762081,-3330.926739,-1991.848295,-1480.411884
1379.762392,-5773.606348,995.924147,-74.020594
1379.762704,-9400.615463,1072.533697,-370.102971
1379.763015,-12583.501014,-1149.143247,1480.411884
1379.763327,-14137.933492,-2757.943793,2886.803174
1379.763638,-13767.830521,-2374.896044,3627.009116
1379.763949,-12583.501014,-766.095498,2812.782580
1379.764261,-9844.739029,-689.485948,2072.576638
1379.764572,-6735.874072,-383.047749,148.041188
1379.764884,-4293.194464,-1915.238745,-1184.329507
1379.765195,-3627.009116,-3140.991542,-1406.391290
1379.765507,-4441.235652,-1838.629195,-888.247130
1379.765818,-6735.874072,919.314598,-370.102971
1379.766129,-9622.677246,1302.362347,1776.494261
1379.766441,-12435.459826,-1532.190996,2886.803174
1379.766752,-14434.015869,-1991.848295,3478.967927
1379.767064,-13767.830521,-306.438199,3775.050304
1379.767375,-11991.336260,2068.457845,1998.556043
1379.767687,-8216.285956,2068.457845,888.247130
1379.767998,-6291.750507,689.485948,-1480.411884
1379.768309,-5107.421000,-766.095498,-1036.288319
1379.768621,-4885.359217,-2145.067394,-1036.288319
1379.768932,-6513.812290,-536.266849,-518.144159
1379.769244,-8290.306550,1149.143247,296.082377
1379.769555,-10584.944971,919.314598,1184.329507
1379.769867,-12731.542202,-1455.581446,1924.535449
1379.770178,-12139.377449,-995.924147,1702.473667
1379.770489,-11399.171507,459.657299,1850.514855
1379.770801,-11029.068536,1455.581446,1110.308913
1379.771112,-7994.224174,536.266849,1628.453072
1379.771424,-5773.606348,-1532.190996,-0.000000
1379.771735,-4219.173869,-3294.210641,-592.164754
1379.772047,-4367.215058,-3294.210641,-1036.288319
1379.772358,-5995.668130,-995.924147,-1776.494261
1379.772669,-7772.162391,1302.362347,-888.247130
1379.772981,-10066.800811,612.876398,-296.082377
1379.773292,-12953.603985,-1838.629195,1554.432478
1379.773604,-15248.242405,-1302.362347,2220.617826
1379.773915,-14434.015869,1149.143247,3034.844362
1379.774227,-12139.377449,3370.820191,1554.432478
1379.774538,-7402.059420,4060.306139,962.267725
1379.774849,-5107.421000,2911.162892,-1554.432478
1379.775161,-4737.318029,76.609550,-3034.844362
1379.775472,-3701.029710,842.705048,-3330.926739
1379.775784,-4515.256246,2987.772442,-2812.782580
1379.776095,-7624.121203,4213.525239,-1850.514855
1379.776407,-11029.068536,1991.848295,-296.082377
1379.776718,-14211.954086,-1455.581446,666.185348
1379.777029,-15026.180623,-1685.410096,2516.700203
1379.777341,-13249.686362,1072.533697,3478.967927
1379.777652,-11769.274478,2145.067394,1628.453072
1379.777964,-7550.100608,2374.896044,592.164754
1379.778275,-4145.153275,-766.095498,-148.041188
1379.778587,-1776.494261,-3294.210641,-1406.391290
1379.778898,-2294.638420,-2451.505594,-1924.535449
1379.779209,-4441.235652,229.828649,-814.226536
1379.779521,-8142.265362,689.485948,666.185348
1379.779833,-13471.748144,-1685.410096,1406.391290
1379.780144,-15766.386565,-2451.505594,3034.844362
1379.780456,-16284.530724,-1532.190996,3997.112087
1379.780767,-14730.098246,689.485948,3997.112087
1379.781079,-11547.212695,1991.848295,2072.576638
1379.781390,-6365.771101,2221.676944,-74.020594
1379.781702,-2590.720797,0.000000,-1036.288319
1379.782013,-1406.391290,-1762.019645,-1258.350101
1379.782325,-2368.659014,-2221.676944,-518.144159
1379.782637,-4885.359217,-153.219100,-74.020594
1379.782948,-7550.100608,919.314598,1110.308913
1379.783260,-11843.295072,-919.314598,1702.473667
1379.783571,-14508.036463,-2221.676944,2664.741391
1379.783883,-14656.077652,-1608.800546,3256.906145
1379.784194,-13767.830521,-612.876398,2812.782580
1379.784506,-11399.171507,459.657299,1998.556043
1379.784817,-7920.203579,919.314598,-0.000000
1379.785129,-5403.503377,-1302.362347,-1110.308913
1379.785441,-4293.194464,-2757.943793,-666.185348
1379.785752,-4071.132681,-2604.724693,-888.247130
1379.786064,-5995.668130,0.000000,444.123565
1379.786375,-9474.636058,612.876398,1184.329507
1379.786687,-11621.233289,-1149.143247,2368.659014
1379.786998,-13397.727550,-2451.505594,2886.803174
1379.787310,-13471.748144,-2145.067394,2812.782580
1379.787621,-11843.295072,919.314598,1850.514855
1379.787933,-9178.553681,2987.772442,222.061783
1379.788245,-6661.853478,2374.896044,-444.123565
1379.788556,-4515.256246,-153.219100,-1110.308913
1379.788868,-4145.153275,-1838.629195,-1554.432478
1379.789179,-4663.297435,-689.485948,-1480.411884
1379.789491,-6957.935855,1532.190996,-1702.473667
1379.789802,-8956.491898,1838.629195,-888.247130
1379.790114,-11251.130318,-459.657299,-296.082377
1379.790425,-13175.665768,-1225.752797,370.102971
1379.790737,-13545.768739,-383.047749,1554.432478
1379.791049,-13619.789333,1455.581446,1924.535449
1379.791360,-11621.233289,1915.238745,2368.659014
1379.791672,-7772.162391,229.828649,740.205942
1379.791983,-5625.565159,-1685.410096,-444.123565
1379.792295,-3330.926739,-1685.410096,-740.205942
1379.792606,-4663.297435,0.000000,-2516.700203
1379.792918,-6957.935855,2374.896044,-1998.556043
1379.793229,-9696.697840,3753.867940,-1628.453072
1379.793541,-12731.542202,2681.334243,370.102971
1379.793853,-15174.221811,1149.143247,1776.494261
1379.794164,-14804.118840,1378.971896,2294.638420
1379.794476,-13249.686362,3217.601092,1554.432478
1379.794787,-8438.347739,3753.867940,814.226536
1379.795099,-4737.318029,2374.896044,-370.102971
1379.795410,-3478.967927,-919.314598,-1184.329507
1379.795722,-4145.153275,-2451.505594,-1480.411884
1379.796033,-5181.441594,-919.314598,-888.247130
1379.796345,-7254.018232,1838.629195,-222.061783
1379.796657,-9548.656652,1762.019645,518.144159
1379.796968,-11917.315666,-1608.800546,1554.432478
1379.797280,-13323.706956,-3983.696590,2516.700203
1379.797591,-12879.583391,-2681.334243,2960.823768
1379.797903,-11843.295072,153.219100,2220.617826
1379.798214,-8512.368333,1072.533697,1850.514855
1379.798526,-6291.750507,-919.314598,370.102971
1379.798837,-4293.194464,-3677.258390,-444.123565
1379.799149,-3478.967927,-3983.696590,-666.185348
1379.799461,-5403.503377,-1378.971896,-518.144159
1379.799772,-8438.347739,1532.190996,814.226536
1379.800084,-11399.171507,459.657299,1998.556043
1379.800395,-13767.830521,-2374.896044,3108.864956
1379.800707,-14434.015869,-1991.848295,3552.988522
1379.801018,-13545.768739,383.047749,2812.782580
1379.801330,-10584.944971,2528.115143,1628.453072
1379.801642,-7031.956449,2068.457845,-296.082377
1379.801953,-4293.194464,459.657299,-962.267725
1379.802265,-3034.844362,-1608.800546,-1258.350101
1379.802576,-3997.112087,-2987.772442,-962.267725
1379.802888,-6365.771101,-1072.533697,-0.000000
1379.803199,-8660.409521,76.609550,962.267725
1379.803511,-11843.295072,-383.047749,1776.494261
1379.803822,-13989.892304,-2604.724693,2220.617826
1379.804134,-13693.809927,-1915.238745,2442.679609
1379.804446,-12583.501014,-689.485948,1406.391290
1379.804757,-10955.047942,689.485948,1184.329507
1379.805069,-7920.203579,229.828649,-74.020594
1379.805380,-5921.647536,-1302.362347,-962.267725
1379.805692,-4515.256246,-2834.553343,-888.247130
1379.806003,-4663.297435,-2528.115143,-444.123565
1379.806315,-6217.729913,-612.876398,-666.185348
1379.806626,-9178.553681,842.705048,814.226536
1379.806938,-11473.192101,1608.800546,1036.288319
1379.807250,-12509.480420,536.266849,592.164754
1379.807561,-14211.954086,1225.752797,592.164754
1379.807873,-13397.727550,2757.943793,666.185348
1379.808184,-11621.233289,4290.134789,-222.061783
1379.808496,-8586.388927,4060.306139,-370.102971
1379.808807,-5773.606348,2298.286494,-1184.329507
1379.809119,-3997.112087,0.000000,-888.247130
1379.809430,-3997.112087,-766.095498,-1480.411884
1379.809742,-5773.606348,1762.019645,-2072.576638
1379.810054,-7476.080014,3524.039291,-1184.329507
1379.810365,-10510.924376,2911.162892,-222.061783
1379.810677,-12805.562797,689.485948,962.267725
1379.810988,-15988.448347,-459.657299,1702.473667
1379.811300,-14137.933492,1455.581446,2442.679609
1379.811611,-11103.089130,2604.724693,1850.514855
1379.811923,-7624.121203,2298.286494,518.144159
1379.812234,-4663.297435,-1378.971896,-518.144159
1379.812546,-3404.947333,-3600.648841,-1184.329507
1379.812858,-3256.906145,-3447.429741,-1184.329507
1379.813169,-4885.359217,0.000000,-296.082377
1379.813481,-8586.388927,1302.362347,296.082377
1379.813792,-11843.295072,-459.657299,1924.535449
1379.814104,-13101.645173,-1685.410096,3330.926739
1379.814415,-13915.871710,-1608.800546,3182.885551
1379.814727,-12879.583391,1149.143247,2516.700203
1379.815038,-9400.615463,2451.505594,1332.370696
1379.815350,-5033.400406,1225.752797,-518.144159
1379.815662,-3627.009116,-2145.067394,-1184.329507
1379.815973,-2664.741391,-4136.915689,-1924.535449
1379.816285,-4145.153275,-2604.724693,-592.164754
1379.816596,-7402.059420,-459.657299,222.061783
1379.816908,-9992.780217,383.047749,2664.741391
1379.817219,-13397.727550,-2298.286494,3108.864956
1379.817531,-13989.892304,-3524.039291,3923.091493
1379.817842,-13767.830521,-2451.505594,3478.967927
1379.818154,-12361.439231,0.000000,2072.576638
1379.818466,-8808.450710,2221.676944,444.123565
1379.818777,-5699.585753,-306.438199,-666.185348
1379.819089,-3849.070898,-2834.553343,-1554.432478
1379.819400,-4071.132681,-3524.039291,-296.082377
1379.819712,-5921.647536,-2757.943793,-222.061783
1379.820023,-8142.265362,0.000000,740.205942
1379.820335,-11473.192101,0.000000,962.267725
1379.820646,-12657.521608,-766.095498,2072.576638
1379.820958,-14211.954086,-1302.362347,2072.576638
1379.821270,-13915.871710,-536.266849,2072.576638
1379.821581,-11843.295072,2145.067394,1036.288319
1379.821893,-8808.450710,2451.505594,-0.000000
1379.822204,-6809.894666,1532.190996,-1258.350101
1379.822516,-4885.359217,-919.314598,-1554.432478
1379.822827,-3330.926739,-1915.238745,-1628.453072
1379.823139,-4959.379811,-1072.533697,-1184.329507
1379.823450,-7402.059420,995.924147,-0.000000
1379.823762,-10658.965565,2068.457845,-0.000000
1379.824074,-13323.706956,536.266849,592.164754
1379.824385,-13619.789333,76.609550,1554.432478
1379.824697,-13545.768739,842.705048,1332.370696
1379.825008,-12139.377449,2911.162892,222.061783
1379.825320,-8364.327145,3677.258390,-0.000000
1379.825631,-5477.523971,1838.629195,-1628.453072
1379.825943,-3701.029710,-459.657299,-1332.370696
1379.826254,-3775.050304,-1072.533697,-1406.391290
1379.826566,-4959.379811,-306.438199,-1776.494261
1379.826878,-7402.059420,1915.238745,-444.123565
1379.827189,-10066.800811,3064.381992,444.123565
1379.827501,-11917.315666,1685.410096,962.267725
1379.827812,-13545.768739,306.438199,1628.453072
1379.828124,-13397.727550,919.314598,2590.720797
1379.828435,-12287.418637,2911.162892,1850.514855
1379.828747,-7994.224174,4060.306139,740.205942
1379.829059,-6291.750507,1608.800546,-962.267725
1379.829370,-4293.194464,-1455.581446,-1258.350101
1379.829682,-3330.926739,-1532.190996,-1258.350101
1379.829993,-4737.318029,229.828649,-1036.288319
1379.830305,-7254.018232,2298.286494,-0.000000
1379.830616,-10584.944971,842.705048,1702.473667
1379.830928,-12805.562797,-2068.457845,2738.761985
1379.831239,-14063.912898,-3217.601092,3627.009116
1379.831551,-13101.645173,-2298.286494,3330.926739
1379.831863,-11029.068536,-842.705048,2442.679609
1379.832174,-7476.080014,-612.876398,814.226536
1379.832486,-4885.359217,-2451.505594,-444.123565
1379.832797,-3182.885551,-4596.572988,-148.041188
1379.833109,-4589.276840,-4596.572988,-222.061783
1379.833420,-6513.812290,-1685.410096,888.247130
1379.833732,-8882.471304,-536.266849,1702.473667
1379.834043,-11695.253884,-919.314598,2442.679609
1379.834355,-13471.748144,-2528.115143,3182.885551
1379.834667,-14434.015869,-1838.629195,3182.885551
1379.834978,-13027.624579,153.219100,3034.844362
1379.835290,-10214.842000,2145.067394,1258.350101
1379.835601,-7254.018232,1532.190996,-74.020594
1379.835913,-6143.709319,-153.219100,-1924.535449
1379.836224,-4737.318029,-1991.848295,-1628.453072
1379.836536,-4515.256246,-2451.505594,-1036.288319
1379.836847,-7254.018232,-1225.752797,222.061783
1379.837159,-9548.656652,-383.047749,666.185348
1379.837471,-11325.150913,-995.924147,1776.494261
1379.837782,-13027.624579,-2681.334243,2146.597232
1379.838094,-13027.624579,-2451.505594,2294.638420
1379.838405,-11177.109724,0.000000,1628.453072
1379.838717,-9326.594869,1378.971896,-296.082377
1379.839028,-6587.832884,229.828649,-592.164754
1379.839340,-5107.421000,-2451.505594,-1258.350101
1379.839651,-4441.235652,-3217.601092,-1110.308913
1379.839963,-5107.421000,-2451.505594,-962.267725
1379.840275,-7994.224174,-229.828649,-444.123565
1379.840586,-9474.636058,1915.238745,222.061783
1379.840898,-11769.274478,1532.190996,814.226536
1379.841209,-13397.727550,689.485948,1258.350101
1379.841521,-13619.789333,919.314598,1924.535449
1379.841832,-11843.295072,3140.991542,1480.411884
1379.842144,-9844.739029,4213.525239,-296.082377
1379.842455,-6809.894666,3524.039291,-1924.535449
1379.842767,-3849.070898,1915.238745,-1850.514855
1379.843079,-3478.967927,-995.924147,-2664.741391
1379.843390,-4145.153275,-1225.752797,-2294.638420
1379.843702,-6217.729913,-689.485948,-1184.329507
1379.844013,-9918.759623,-383.047749,-444.123565
1379.844325,-11769.274478,-1072.533697,1332.370696
1379.844636,-13249.686362,-3524.039291,2294.638420
1379.844948,-14211.954086,-4596.572988,2812.782580
1379.845259,-12509.480420,-2757.943793,2146.597232
1379.845571,-10140.821405,-1225.752797,888.247130
1379.845883,-7105.977043,-919.314598,-74.020594
1379.846194,-4515.256246,-2987.772442,-148.041188
1379.846506,-3108.864956,-5439.278036,-222.061783
1379.846817,-3552.988522,-6818.249932,-0.000000
1379.847129,-6143.709319,-4673.182538,444.123565
1379.847440,-8660.409521,-2145.067394,148.041188
1379.847752,-11399.171507,-842.705048,962.267725
1379.848063,-12805.562797,-1991.848295,2812.782580
1379.848375,-14582.057057,-4749.792088,3478.967927
1379.848687,-14508.036463,-3677.258390,3404.947333
1379.848998,-12361.439231,-919.314598,2220.617826
1379.849310,-8586.388927,-383.047749,1184.329507
1379.849621,-5477.523971,-2681.334243,-814.226536
1379.849933,-2738.761985,-4596.572988,-296.082377
1379.850244,-1184.329507,-6511.811733,-1036.288319
1379.850556,-2516.700203,-7048.078582,-1036.288319
1379.850867,-5181.441594,-5515.887586,370.102971
1379.851179,-10807.006753,-4903.011187,814.226536
1379.851491,-14359.995275,-4596.572988,2072.576638
1379.851802,-16506.592507,-4366.744339,3108.864956
1379.852114,-16580.613101,-3907.087040,3849.070898
1379.852425,-13545.768739,-3447.429741,2812.782580
1379.852737,-10510.924376,-3907.087040,1554.432478
1379.853048,-7994.224174,-3524.039291,148.041188
1379.853360,-5033.400406,-3447.429741,-814.226536
1379.853672,-2146.597232,-2604.724693,-962.267725
1379.853983,-1924.535449,-2987.772442,-1258.350101
1379.854295,-3627.009116,-4290.134789,-1036.288319
1379.854606,-5625.565159,-4366.744339,-444.123565
1379.854918,-7698.141797,-3600.648841,888.247130
1379.855229,-10955.047942,-2911.162892,1628.453072
1379.855541,-14211.954086,-1838.629195,1776.494261
1379.855852,-16062.468941,-1072.533697,1480.411884
1379.856164,-14656.077652,612.876398,1036.288319
1379.856476,-13027.624579,306.438199,1184.329507
1379.856787,-9474.636058,-995.924147,814.226536
1379.857099,-5847.626942,-2528.115143,1406.391290
1379.857410,-2146.597232,-5209.449386,888.247130
1379.857722,-888.247130,-6052.154434,-0.000000
1379.858033,-1554.432478,-5132.839837,-1776.494261
1379.858345,-4515.256246,-3217.601092,-2368.659014
1379.858656,-7994.224174,-2145.067394,-2442.679609
1379.858968,-11547.212695,-1838.629195,-1628.453072
1379.859280,-15618.345376,-1302.362347,-148.041188
1379.859591,-17172.777854,-1149.143247,1554.432478
1379.859903,-15544.324782,-3217.601092,2960.823768
1379.860214,-12213.398043,-3217.601092,2590.720797
1379.860526,-9474.636058,-3217.601092,1184.329507
1379.860837,-6217.729913,-2681.334243,444.123565
1379.861149,-4811.338623,-1991.848295,-592.164754
1379.861460,-4367.215058,-383.047749,-518.144159
1379.861772,-5255.462188,76.609550,-1110.308913
1379.862084,-7476.080014,-229.828649,-1110.308913
1379.862395,-8438.347739,-306.438199,-962.267725
1379.862707,-8660.409521,-995.924147,-518.144159
1379.863018,-9696.697840,-2834.553343,-0.000000
1379.863330,-9992.780217,-4213.525239,444.123565
1379.863641,-11399.171507,-5209.449386,962.267725
1379.863953,-11991.336260,-5132.839837,2220.617826
1379.864264,-11177.109724,-4903.011187,2516.700203
1379.864576,-9992.780217,-4749.792088,2294.638420
1379.864888,-8586.388927,-4596.572988,1480.411884
1379.865199,-7105.977043,-4213.525239,296.082377
1379.865511,-5255.462188,-2528.115143,-444.123565
1379.865822,-4589.276840,-1915.238745,-962.267725
1379.866134,-4737.318029,-2145.067394,-1258.350101
1379.866445,-5551.544565,-2451.505594,-740.205942
1379.866757,-7402.059420,-3370.820191,-370.102971
1379.867068,-8882.471304,-3524.039291,592.164754
1379.867380,-10807.006753,-3983.696590,1776.494261
1379.867692,-13027.624579,-4673.182538,2368.659014
1379.868003,-13397.727550,-5439.278036,2960.823768
1379.868315,-12731.542202,-4903.011187,2516.700203
1379.868626,-11621.233289,-2834.553343,2294.638420
1379.868938,-9474.636058,-2221.676944,1184.329507
1379.869249,-6661.853478,-1225.752797,-74.020594
1379.869561,-5403.503377,-689.485948,-1258.350101
1379.869872,-4293.194464,0.000000,-1406.391290
1379.870184,-4663.297435,-612.876398,-1184.329507
1379.870496,-6365.771101,-2298.286494,-0.000000
1379.870807,-8734.430116,-3830.477490,740.205942
1379.871119,-11325.150913,-4903.011187,1628.453072
1379.871430,-12657.521608,-4903.011187,2146.597232
1379.871742,-13323.706956,-4826.401637,2294.638420
1379.872053,-12731.542202,-4136.915689,1850.514855
1379.872365,-11325.150913,-3677.258390,1110.308913
1379.872676,-9474.636058,-3370.820191,962.267725
1379.872988,-7031.956449,-2987.772442,666.185348
1379.873300,-5329.482782,-2145.067394,148.041188
1379.873611,-4737.318029,-1302.362347,-74.020594
1379.873923,-5033.400406,-995.924147,-518.144159
1379.874234,-6957.935855,-1149.143247,-814.226536
1379.874546,-8364.327145,-995.924147,-592.164754
1379.874857,-9696.697840,-995.924147,-222.061783
1379.875169,-11251.130318,-2298.286494,-0.000000
1379.875480,-11991.336260,-3064.381992,740.205942
1379.875792,-10658.965565,-3447.429741,1258.350101
1379.876104,-10658.965565,-3677.258390,962.267725
1379.876415,-7772.162391,-2911.162892,962.267725
1379.876727,-6661.853478,-3600.648841,-222.061783
1379.877038,-7031.956449,-3677.258390,-370.102971
1379.877350,-4811.338623,-2451.505594,-74.020594
1379.877661,-5921.647536,-3370.820191,-1036.288319
1379.877973,-7476.080014,-4673.182538,740.205942
1379.878284,-11917.315666,-5669.106685,666.185348
1379.878596,-12213.398043,-4519.963438,1776.494261
1379.878908,-11695.253884,-2298.286494,1628.453072
1379.879219,-10807.006753,-2757.943793,2812.782580
1379.879531,-10658.965565,-4596.572988,1924.535449
1379.879842,-9030.512492,-4749.792088,1702.473667
1379.880154,-7402.059420,-2451.505594,1998.556043
1379.880465,-7105.977043,-689.485948,1628.453072
1379.880777,-9696.697840,229.828649,814.226536
1379.881089,-10066.800811,1302.362347,1036.288319
1379.881400,-8660.409521,-459.657299,1554.432478
1379.881712,-7624.121203,-1378.971896,1554.432478
1379.882023,-6735.874072,-612.876398,1924.535449
1379.882335,-9104.533087,-2068.457845,1554.432478
1379.882646,-9104.533087,-4290.134789,3552.988522
1379.882958,-10288.862594,-4903.011187,3552.988522
1379.883269,-9696.697840,-1838.629195,5625.565159
1379.883581,-11991.336260,-459.657299,4811.338623
1379.883893,-12435.459826,-1532.190996,5921.647536
1379.884204,-8882.471304,-919.314598,4071.132681
1379.884516,-7031.956449,1838.629195,3330.926739
1379.884827,-5773.606348,2068.457845,2738.761985
1379.885139,-5625.565159,842.705048,2368.659014
1379.885450,-7550.100608,-459.657299,1628.453072
1379.885762,-6291.750507,689.485948,3849.070898
1379.886074,-8290.306550,842.705048,3404.947333
1379.886385,-11991.336260,0.000000,4515.256246
1379.886697,-11547.212695,842.705048,7105.977043
1379.887008,-10510.924376,-1149.143247,5477.523971
1379.887320,-8068.244768,-689.485948,6957.935855
1379.887631,-8364.327145,383.047749,4737.318029
1379.887943,-7179.997637,1685.410096,4737.318029
1379.888254,-5773.606348,1838.629195,3108.864956
1379.888566,-4737.318029,1455.581446,2960.823768
1379.888878,-5255.462188,2145.067394,2886.803174
1379.889189,-8660.409521,1378.971896,3627.009116
1379.889501,-9252.574275,459.657299,4441.235652
1379.889812,-8882.471304,-995.924147,5181.441594
1379.890124,-8660.409521,-2145.067394,5329.482782
1379.890435,-8956.491898,-2451.505594,5329.482782
1379.890747,-9178.553681,-2374.896044,5255.462188
1379.891059,-8364.327145,-2145.067394,4367.215058
1379.891370,-8290.306550,1225.752797,4811.338623
1379.891682,-8734.430116,1225.752797,3330.926739
1379.891993,-9844.739029,2221.676944,3997.112087
1379.892305,-9474.636058,2298.286494,3330.926739
1379.892616,-7550.100608,2528.115143,3552.988522
1379.892928,-7846.182985,1838.629195,3108.864956
1379.893239,-7328.038826,0.000000,2812.782580
1379.893551,-7550.100608,-536.266849,2886.803174
1379.893863,-7105.977043,-995.924147,2886.803174
1379.894174,-7105.977043,-1378.971896,3404.947333
1379.894486,-8586.388927,-1762.019645,3627.009116
1379.894797,-10066.800811,-1762.019645,3701.029710
1379.895109,-10955.047942,-995.924147,3997.112087
1379.895420,-10510.924376,-689.485948,3997.112087
1379.895732,-11103.089130,383.047749,4219.173869
1379.896044,-10658.965565,229.828649,3108.864956
1379.896355,-9178.553681,-153.219100,2590.720797
1379.896667,-7920.203579,0.000000,2072.576638
1379.896978,-7550.100608,0.000000,2368.659014
1379.897290,-9474.636058,-1225.752797,2812.782580
1379.897601,-9992.780217,-2604.724693,3997.112087
1379.897913,-10584.944971,-2911.162892,4737.318029
1379.898224,-9992.780217,-2068.457845,4959.379811
1379.898536,-8734.430116,-1685.410096,4589.276840
1379.898848,-7846.182985,-1762.019645,3108.864956
1379.899159,-6587.832884,229.828649,2146.597232
1379.899471,-5477.523971,1762.019645,518.144159
1379.899782,-6513.812290,2451.505594,-296.082377
1379.900094,-8068.244768,2451.505594,148.041188
1379.900405,-10140.821405,2298.286494,592.164754
1379.900717,-11621.233289,2145.067394,2368.659014
1379.901029,-12361.439231,1378.971896,3330.926739
1379.901340,-12065.356855,0.000000,4293.194464
1379.901652,-10955.047942,-995.924147,4663.297435
1379.901963,-7994.224174,-1455.581446,3775.050304
1379.902275,-4885.359217,-2145.067394,2442.679609
1379.902586,-3701.029710,-1838.629195,1480.411884
1379.902898,-4367.215058,-1455.581446,740.205942
1379.903209,-6883.915261,-612.876398,592.164754
1379.903521,-9474.636058,536.266849,2368.659014
1379.903833,-12583.501014,1302.362347,3478.967927
1379.904144,-15100.201217,1225.752797,5107.421000
1379.904456,-14804.118840,0.000000,6217.729913
1379.904767,-11399.171507,-306.438199,5625.565159
1379.905079,-7254.018232,-612.876398,4071.132681
1379.905390,-4811.338623,-383.047749,2220.617826
1379.905702,-3182.885551,383.047749,1480.411884
1379.906014,-3849.070898,306.438199,666.185348
1379.906325,-6587.832884,995.924147,1776.494261
1379.906637,-10732.986159,1149.143247,3478.967927
1379.906948,-14508.036463,1225.752797,4959.379811
1379.907260,-14804.118840,1378.971896,5995.668130
1379.907571,-11843.295072,459.657299,5403.503377
1379.907883,-8808.450710,-766.095498,4219.173869
1379.908194,-6587.832884,-1378.971896,3552.988522
1379.908506,-4663.297435,-536.266849,2738.761985
1379.908818,-5329.482782,-612.876398,4145.153275
1379.909129,-8068.244768,-689.485948,5699.585753
1379.909441,-11917.315666,-306.438199,7179.997637
1379.909752,-12953.603985,0.000000,8068.244768
1379.910064,-11399.171507,76.609550,6513.812290
1379.910375,-7031.956449,1455.581446,4367.215058
1379.910687,-4071.132681,2911.162892,1554.432478
1379.910999,-3256.906145,3600.648841,-444.123565
1379.911310,-3923.091493,2987.772442,-740.205942
1379.911622,-6587.832884,2528.115143,666.185348
1379.911933,-10140.821405,1991.848295,3330.926739
1379.912245,-13397.727550,459.657299,5921.647536
1379.912556,-14952.160028,-1915.238745,8216.285956
1379.912868,-14359.995275,-2681.334243,9844.739029
1379.913179,-12583.501014,-2221.676944,9474.636058
1379.913491,-9400.615463,-1225.752797,8808.450710
1379.913803,-6439.791695,-842.705048,6069.688724
1379.914114,-3997.112087,-459.657299,3404.947333
1379.914426,-444.123565,919.314598,592.164754
1379.914737,444.123565,2528.115143,-1110.308913
1379.915049,-2812.782580,3677.258390,-0.000000
1379.915360,-8512.368333,2834.553343,3108.864956
1379.915672,-12509.480420,306.438199,5033.400406
1379.915984,-15618.345376,-2068.457845,7105.977043
1379.916295,-16580.613101,-2221.676944,8068.244768
1379.916607,-13767.830521,-2068.457845,7254.018232
1379.916918,-9844.739029,-1302.362347,4367.215058
1379.917230,-6143.709319,-383.047749,2368.659014
1379.917541,-4959.379811,306.438199,1480.411884
1379.917853,-4663.297435,306.438199,2072.576638
1379.918164,-4737.318029,1455.581446,2516.700203
1379.918476,-6291.750507,1608.800546,2664.741391
1379.918788,-6365.771101,689.485948,1850.514855
1379.919099,-4811.338623,153.219100,-222.061783
1379.919411,-4219.173869,0.000000,-2072.576638
1379.919722,-5995.668130,-689.485948,-2294.638420
1379.920034,-10214.842000,-1225.752797,-1332.370696
1379.920345,-14656.077652,-689.485948,814.226536
1379.920657,-19023.292709,0.000000,2590.720797
1379.920969,-19837.519246,0.000000,4959.379811
1379.921280,-16654.633695,306.438199,4737.318029
1379.921592,-10362.883188,1072.533697,2368.659014
1379.921903,-3627.009116,1378.971896,-296.082377
1379.922215,814.226536,2068.457845,-4293.194464
1379.922526,3256.906145,2374.896044,-6587.832884
1379.922838,1998.556043,2374.896044,-8512.368333
1379.923149,-2960.823768,995.924147,-6735.874072
1379.923461,-10362.883188,-459.657299,-3627.009116
1379.923773,-17468.860231,-1608.800546,370.102971
1379.924084,-23538.548956,-2145.067394,4219.173869
1379.924396,-25092.981434,-2451.505594,6809.894666
1379.924707,-22058.137072,-2911.162892,5921.647536
1379.925019,-15988.448347,-2374.896044,3923.091493
1379.925330,-7179.997637,0.000000,1332.370696
1379.925642,148.041188,-766.095498,-2220.617826
1379.925954,4737.318029,612.876398,-5181.441594
1379.926265,4441.235652,1838.629195,-7179.997637
1379.926577,-296.082377,1532.190996,-6143.709319
1379.926888,-7031.956449,383.047749,-3627.009116
1379.927200,-15174.221811,-766.095498,-222.061783
1379.927511,-22798.343014,-1302.362347,2886.803174
1379.927823,-25463.084405,-536.266849,5107.421000
1379.928134,-22502.260637,0.000000,5551.544565
1379.928446,-15914.427753,-459.657299,4811.338623
1379.928758,-7328.038826,-689.485948,3404.947333
1379.929069,74.020594,-383.047749,814.226536
1379.929381,4885.359217,229.828649,-1776.494261
1379.929692,6735.874072,1762.019645,-3330.926739
1379.930004,3701.029710,2604.724693,-3627.009116
1379.930315,-3330.926739,1608.800546,-2812.782580
1379.930627,-10288.862594,306.438199,-1480.411884
1379.930939,-15248.242405,919.314598,1480.411884
1379.931250,-19467.416275,842.705048,3404.947333
1379.931562,-20651.745782,459.657299,5625.565159
1379.931873,-18135.045579,-1455.581446,6291.750507
1379.932185,-11843.295072,-1915.238745,7105.977043
1379.932496,-5255.462188,-1762.019645,5551.544565
1379.932808,1110.308913,-1149.143247,3404.947333
1379.933119,5255.462188,0.000000,296.082377
1379.933431,4811.338623,459.657299,-2590.720797
1379.933743,1924.535449,1685.410096,-3627.009116
1379.934054,-4663.297435,2068.457845,-3330.926739
1379.934366,-12657.521608,2145.067394,-1554.432478
1379.934677,-19911.539840,2298.286494,888.247130
1379.934989,-24056.693115,842.705048,4071.132681
1379.935300,-23168.445985,-383.047749,5773.606348
1379.935612,-16802.674883,-2221.676944,6365.771101
1379.935924,-9918.759623,-3677.258390,5625.565159
1379.936235,-3627.009116,-4443.353888,3849.070898
1379.936547,1480.411884,-2451.505594,-296.082377
1379.936858,2368.659014,0.000000,-2294.638420
1379.937170,-888.247130,1532.190996,-3923.091493
1379.937481,-6217.729913,2451.505594,-2368.659014
1379.937793,-12065.356855,2451.505594,-2294.638420
1379.938104,-17172.777854,3140.991542,-222.061783
1379.938416,-18653.189738,2221.676944,1332.370696
1379.938728,-16950.716072,0.000000,2738.761985
1379.939039,-13915.871710,-1991.848295,4145.153275
1379.939351,-9992.780217,-3753.867940,4959.379811
1379.939662,-5921.647536,-4519.963438,4663.297435
1379.939974,-2812.782580,-3983.696590,2368.659014
1379.940285,0.000000,-2451.505594,-0.000000
1379.940597,148.041188,-612.876398,-2960.823768
1379.940909,-3034.844362,1378.971896,-3849.070898
1379.941220,-7698.141797,3677.258390,-3330.926739
1379.941532,-14211.954086,4290.134789,-2886.803174
1379.941843,-17320.819043,3294.210641,-666.185348
1379.942155,-16432.571912,919.314598,962.267725
1379.942466,-12805.562797,-2145.067394,2220.617826
1379.942778,-7698.141797,-3447.429741,1480.411884
1379.943089,-4589.276840,-3753.867940,518.144159
1379.943401,-2368.659014,-4519.963438,-1110.308913
1379.943713,-2072.576638,-2298.286494,-1480.411884
1379.944024,-5847.626942,0.000000,-1258.350101
1379.944336,-10214.842000,229.828649,-1554.432478
1379.944647,-13323.706956,1455.581446,-666.185348
1379.944959,-15026.180623,4060.306139,-2516.700203
1379.945270,-12731.542202,5362.668486,-3404.947333
1379.945582,-8808.450710,4673.182538,-4663.297435
1379.945894,-7254.018232,1762.019645,-4663.297435
1379.946205,-5773.606348,-689.485948,-3627.009116
1379.946517,-5181.441594,-1991.848295,-2368.659014
1379.946828,-6587.832884,-2451.505594,-74.020594
1379.947140,-8808.450710,-3064.381992,1554.432478
1379.947451,-12065.356855,-4443.353888,2294.638420
1379.947763,-14656.077652,-3064.381992,2368.659014
1379.948074,-15692.365970,0.000000,814.226536
1379.948386,-14730.098246,2757.943793,-1258.350101
1379.948698,-11325.150913,4443.353888,-3478.967927
1379.949009,-7254.018232,3983.696590,-4737.318029
1379.949321,-4441.235652,76.609550,-4145.153275
1379.949632,-2960.823768,-1915.238745,-2812.782580
1379.949944,-4219.173869,-3064.381992,-1184.329507
1379.950255,-6735.874072,-3907.087040,1480.411884
1379.950567,-9992.780217,-5669.106685,3627.009116
1379.950879,-13175.665768,-6435.202183,4367.215058
1379.951190,-15988.448347,-4596.572988,4811.338623
1379.951502,-16580.613101,-1378.971896,3478.967927
1379.951813,-14508.036463,1915.238745,1702.473667
1379.952125,-11547.212695,3447.429741,-0.000000
1379.952436,-6439.791695,3753.867940,-2072.576638
1379.952748,-2812.782580,2374.896044,-2442.679609
1379.953059,-444.123565,1302.362347,-1850.514855
1379.953371,74.020594,919.314598,-1184.329507
1379.953683,-2590.720797,-459.657299,-0.000000
1379.953994,-6735.874072,-2528.115143,2812.782580
1379.954306,-11843.295072,-3753.867940,3701.029710
1379.954617,-14878.139434,-3064.381992,5477.523971
1379.954929,-16284.530724,-766.095498,5181.441594
1379.955240,-15618.345376,1455.581446,3997.112087
1379.955552,-11991.336260,3294.210641,2812.782580
1379.955864,-7105.977043,3217.601092,962.267725
1379.956175,-2516.700203,3294.210641,-148.041188
1379.956487,1036.288319,1915.238745,-1554.432478
1379.956798,2220.617826,1838.629195,-2516.700203
1379.957110,0.000000,1225.752797,-2590.720797
1379.957421,-4885.359217,-459.657299,-740.205942
1379.957733,-10362.883188,-2834.553343,1850.514855
1379.958044,-15988.448347,-3294.210641,4367.215058
1379.958356,-19467.416275,-2374.896044,6291.750507
1379.958668,-19541.436869,-1608.800546,5625.565159
1379.958979,-15322.262999,-689.485948,4219.173869
1379.959291,-9548.656652,0.000000,1850.514855
1379.959602,-4737.318029,459.657299,-592.164754
1379.959914,-814.226536,1378.971896,-2812.782580
1379.960225,814.226536,2145.067394,-3849.070898
1379.960537,-1258.350101,1991.848295,-3997.112087
1379.960849,-4589.276840,229.828649,-2886.803174
1379.961160,-10436.903782,-459.657299,-1184.329507
1379.961472,-15692.365970,-1225.752797,962.267725
1379.961783,-18505.148550,-919.314598,2960.823768
1379.962095,-18727.210333,-612.876398,2738.761985
1379.962406,-15470.304188,-766.095498,2368.659014
1379.962718,-11325.150913,-612.876398,1110.308913
1379.963029,-7105.977043,-842.705048,-222.061783
1379.963341,-3775.050304,153.219100,-2294.638420
1379.963653,-3034.844362,1762.019645,-4515.256246
1379.963964,-1850.514855,2528.115143,-4219.173869
1379.964276,-3701.029710,1685.410096,-4367.215058
1379.964587,-7846.182985,-919.314598,-3404.947333
1379.964899,-12435.459826,-536.266849,-814.226536
1379.965210,-16432.571912,0.000000,1184.329507
1379.965522,-18653.189738,-1072.533697,3627.009116
1379.965834,-16802.674883,-3217.601092,4515.256246
1379.966145,-11917.315666,-4290.134789,2590.720797
1379.966457,-6735.874072,-2604.724693,1036.288319
1379.966768,-1924.535449,-306.438199,592.164754
1379.967080,-296.082377,0.000000,-1998.556043
1379.967391,-1776.494261,0.000000,-2738.761985
1379.967703,-5255.462188,-383.047749,-2368.659014
1379.968014,-9178.553681,229.828649,-666.185348
1379.968326,-11843.295072,919.314598,518.144159
1379.968638,-14434.015869,1072.533697,666.185348
1379.968949,-14952.160028,1532.190996,814.226536
1379.969261,-11843.295072,-536.266849,1776.494261
1379.969572,-9474.636058,-1685.410096,3330.926739
1379.969884,-7624.121203,-1685.410096,3182.885551
1379.970195,-5773.606348,-1532.190996,1924.535449
1379.970507,-3627.009116,-766.095498,-74.020594
1379.970819,-3034.844362,1762.019645,-1332.370696
1379.971130,-4515.256246,2681.334243,-2072.576638
1379.971442,-7846.182985,2681.334243,-1554.432478
1379.971753,-11695.253884,2221.676944,-1110.308913
1379.972065,-14730.098246,2451.505594,666.185348
1379.972376,-16136.489536,1915.238745,1628.453072
1379.972688,-14063.912898,383.047749,2368.659014
1379.972999,-10807.006753,-689.485948,3182.885551
1379.973311,-6439.791695,-1991.848295,2664.741391
1379.973623,-4737.318029,-2681.334243,2220.617826
1379.973934,-4145.153275,-1685.410096,888.247130
1379.974246,-5625.565159,-689.485948,1702.473667
1379.974557,-8512.368333,-536.266849,1406.391290
1379.974869,-11991.336260,0.000000,1628.453072
1379.975180,-14211.954086,1608.800546,814.226536
1379.975492,-14211.954086,2911.162892,666.185348
1379.975804,-11843.295072,3064.381992,444.123565
1379.976115,-8438.347739,919.314598,1406.391290
1379.976427,-7105.977043,-1762.019645,2368.659014
1379.976738,-5477.523971,-2911.162892,3478.967927
1379.977050,-4293.194464,-2987.772442,3627.009116
1379.977361,-3701.029710,-2528.115143,2738.761985
1379.977673,-4885.359217,-1762.019645,1850.514855
1379.977984,-7846.182985,-459.657299,1258.350101
1379.978296,-10140.821405,995.924147,1184.329507
1379.978608,-13027.624579,2528.115143,962.267725
1379.978919,-14211.954086,3447.429741,444.123565
1379.979231,-12731.542202,3217.601092,666.185348
1379.979542,-9326.594869,2145.067394,148.041188
1379.979854,-6069.688724,1149.143247,1332.370696
1379.980165,-3849.070898,0.000000,1036.288319
1379.980477,-3182.885551,-766.095498,962.267725
1379.980789,-3997.112087,-2451.505594,1184.329507
1379.981100,-5995.668130,-2068.457845,1628.453072
1379.981412,-9030.512492,-1685.410096,1628.453072
1379.981723,-12435.459826,-612.876398,1776.494261
1379.982035,-15026.180623,842.705048,1406.391290
1379.982346,-15840.407159,2374.896044,1258.350101
1379.982658,-13323.706956,2834.553343,888.247130
1379.982969,-9178.553681,2068.457845,-222.061783
1379.983281,-5625.565159,306.438199,-74.020594
1379.983592,-2590.720797,-842.705048,-962.267725
1379.983904,-1924.535449,-689.485948,-1258.350101
1379.984215,-3478.967927,-306.438199,-888.247130
1379.984526,-5995.668130,-1608.800546,-0.000000
1379.984838,-10584.944971,-2987.772442,888.247130
1379.985149,-13323.706956,-2221.676944,1184.329507
1379.985461,-14730.098246,0.000000,888.247130
1379.985772,-15544.324782,1608.800546,296.082377
1379.986084,-14730.098246,2604.724693,740.205942
1379.986395,-12139.377449,1685.410096,-148.041188
1379.986707,-9104.533087,612.876398,-0.000000
1379.987018,-6069.688724,612.876398,-0.000000
1379.987330,-3701.029710,229.828649,-666.185348
1379.987641,-2294.638420,536.266849,-1332.370696
1379.987953,-4071.132681,-1072.533697,-1406.391290
1379.988264,-9030.512492,-1608.800546,-0.000000
1379.988576,-13323.706956,-1838.629195,2220.617826
1379.988887,-15914.427753,-306.438199,2812.782580
1379.989199,-15766.386565,383.047749,2368.659014
1379.989510,-13545.768739,766.095498,2442.679609
1379.989821,-10955.047942,306.438199,2368.659014
1379.990133,-7550.100608,-1225.752797,1776.494261
1379.990444,-3330.926739,-1532.190996,592.164754
1379.990756,-888.247130,-306.438199,-888.247130
1379.991067,-296.082377,0.000000,-518.144159
1379.991379,-3330.926739,-1225.752797,-1036.288319
1379.991690,-7698.141797,-2451.505594,-0.000000
1379.992002,-12065.356855,-1378.971896,1036.288319
1379.992313,-15174.221811,383.047749,2072.576638
1379.992625,-16358.551318,2451.505594,3034.844362
1379.992936,-15026.180623,1608.800546,2368.659014
1379.993248,-11251.130318,995.924147,1332.370696
1379.993559,-6291.750507,1378.971896,518.144159
1379.993871,-2072.576638,2604.724693,-814.226536
1379.994182,0.000000,2374.896044,-2442.679609
1379.994494,-518.144159,1072.533697,-2590.720797
1379.994805,-3552.988522,-459.657299,-3108.864956
1379.995116,-8216.285956,689.485948,-1628.453072
1379.995428,-13175.665768,1762.019645,518.144159
1379.995739,-18209.066173,2374.896044,2294.638420
1379.996051,-19985.560434,1378.971896,3404.947333
1379.996362,-17098.757260,-153.219100,3330.926739
1379.996674,-11769.274478,-1225.752797,2368.659014
1379.996985,-6069.688724,-842.705048,1702.473667
1379.997297,-1628.453072,0.000000,-222.061783
1379.997608,-592.164754,-459.657299,-2220.617826
1379.997920,-2294.638420,-919.314598,-1332.370696
1379.998231,-7105.977043,-1685.410096,-296.082377
1379.998543,-11103.089130,-1378.971896,1924.535449
1379.998854,-14434.015869,-995.924147,2368.659014
1379.999166,-16062.468941,-459.657299,2442.679609
1379.999477,-15026.180623,76.609550,2368.659014
1379.999789,-11769.274478,-383.047749,2146.597232
1380.000100,-8512.368333,0.000000,2146.597232
1380.000411,-5699.585753,-2298.286494,2220.617826
1380.000723,-3108.864956,-689.485948,1776.494261
1380.001034,-2220.617826,0.000000,-0.000000
1380.001346,-2960.823768,229.828649,-666.185348
1380.001657,-5107.421000,-306.438199,-740.205942
1380.001969,-8216.285956,-306.438199,-814.226536
1380.002280,-11177.109724,1455.581446,148.041188
1380.002592,-14137.933492,1991.848295,592.164754
1380.002903,-15470.304188,1991.848295,2072.576638
1380.003215,-13619.789333,459.657299,1924.535449
1380.003526,-9918.759623,-612.876398,2516.700203
1380.003838,-5921.647536,-995.924147,2368.659014
1380.004149,-3034.844362,-306.438199,740.205942
1380.004461,-1924.535449,1455.581446,-962.267725
1380.004772,-2368.659014,1072.533697,-1480.411884
1380.005084,-6661.853478,383.047749,-962.267725
1380.005395,-9992.780217,842.705048,-0.000000
1380.005706,-13619.789333,1608.800546,222.061783
1380.006018,-15544.324782,1991.848295,518.144159
1380.006329,-14508.036463,2221.676944,1184.329507
1380.006641,-10955.047942,842.705048,592.164754
1380.006952,-7402.059420,-383.047749,1406.391290
1380.007264,-5699.585753,-1991.848295,1554.432478
1380.007575,-4367.215058,-2757.943793,370.102971
1380.007887,-3552.988522,-2451.505594,-740.205942
1380.008198,-3330.926739,-1838.629195,-1776.494261
1380.008510,-6291.750507,-1685.410096,-2960.823768
1380.008821,-10436.903782,-612.876398,-2072.576638
1380.009133,-15100.201217,1225.752797,-1258.350101
1380.009444,-19541.436869,2451.505594,296.082377
1380.009756,-19985.560434,2374.896044,2220.617826
1380.010067,-16580.613101,919.314598,1554.432478
1380.010379,-9918.759623,-383.047749,1110.308913
1380.010690,-3034.844362,-1378.971896,-962.267725
1380.011001,1776.494261,-1378.971896,-3182.885551
1380.011313,2368.659014,-229.828649,-4737.318029
1380.011624,-1924.535449,-306.438199,-3330.926739
1380.011936,-9400.615463,-689.485948,-1554.432478
1380.012247,-16210.510130,-229.828649,1480.411884
1380.012559,-20873.807564,1838.629195,3849.070898
1380.012870,-21095.869347,2298.286494,3552.988522
1380.013182,-15248.242405,1302.362347,1924.535449
1380.013493,-7105.977043,-766.095498,-1110.308913
1380.013805,74.020594,-1378.971896,-3108.864956
1380.014116,4293.194464,-1762.019645,-3256.906145
1380.014428,1702.473667,-1532.190996,-2516.700203
1380.014739,-4959.379811,-2451.505594,-814.226536
1380.015051,-10066.800811,-3217.601092,1480.411884
1380.015362,-15100.201217,-2374.896044,3034.844362
1380.015674,-17172.777854,-995.924147,3775.050304
1380.015985,-16062.468941,612.876398,2220.617826
1380.016296,-12731.542202,842.705048,-444.123565
1380.016608,-8882.471304,1685.410096,-1702.473667
1380.016919,-5847.626942,919.314598,-1924.535449
1380.017231,-3552.988522,536.266849,-1332.370696
1380.017542,-3108.864956,383.047749,-296.082377
1380.017854,-4219.173869,-306.438199,-296.082377
1380.018165,-5921.647536,153.219100,370.102971
1380.018477,-7846.182985,76.609550,814.226536
1380.018788,-10436.903782,-153.219100,1036.288319
1380.019100,-13027.624579,0.000000,814.226536
1380.019411,-15026.180623,306.438199,962.267725
1380.019723,-14285.974681,1915.238745,444.123565
1380.020034,-13249.686362,2374.896044,592.164754
1380.020346,-10807.006753,1302.362347,1776.494261
1380.020657,-7402.059420,-689.485948,2294.638420
1380.020969,-4737.318029,-1072.533697,1924.535449
1380.021280,-3404.947333,-2221.676944,1480.411884
1380.021591,-3404.947333,-2681.334243,1776.494261
1380.021903,-5255.462188,-2911.162892,1480.411884
1380.022214,-9104.533087,-2451.505594,814.226536
1380.022526,-12361.439231,-1378.971896,1184.329507
1380.022837,-14285.974681,0.000000,1850.514855
1380.023149,-14878.139434,1532.190996,1850.514855
1380.023460,-12509.480420,1149.143247,2220.617826
1380.023772,-9474.636058,-612.876398,2072.576638
1380.024083,-6439.791695,-766.095498,2368.659014
1380.024395,-2960.823768,-229.828649,1258.350101
1380.024706,-1406.391290,-536.266849,-888.247130
1380.025018,-1258.350101,-612.876398,-1110.308913
1380.025329,-3849.070898,-1378.971896,-1628.453072
1380.025641,-7920.203579,-536.266849,-888.247130
1380.025952,-11843.295072,919.314598,740.205942
1380.026264,-15618.345376,1302.362347,1110.308913
1380.026575,-17098.757260,1532.190996,2738.761985
1380.026886,-14730.098246,842.705048,2368.659014
1380.027198,-9992.780217,306.438199,1480.411884
1380.027509,-5625.565159,536.266849,666.185348
1380.027821,-2590.720797,689.485948,-1110.308913
1380.028132,-1332.370696,153.219100,-2590.720797
1380.028444,-2516.700203,0.000000,-2590.720797
1380.028755,-5477.523971,76.609550,-2442.679609
1380.029067,-9844.739029,306.438199,-1184.329507
1380.029378,-14063.912898,689.485948,-0.000000
1380.029690,-16950.716072,1302.362347,666.185348
1380.030001,-17542.880825,919.314598,1332.370696
1380.030313,-13693.809927,0.000000,1628.453072
1380.030624,-9844.739029,-1225.752797,370.102971
1380.030936,-5625.565159,-2145.067394,-814.226536
1380.031247,-2812.782580,-2068.457845,-2368.659014
1380.031559,-2072.576638,-842.705048,-3404.947333
1380.031870,-3330.926739,-2145.067394,-2812.782580
1380.032181,-7402.059420,-2068.457845,-2220.617826
1380.032493,-12435.459826,-2528.115143,-518.144159
1380.032804,-16358.551318,-1608.800546,740.205942
1380.033116,-19023.292709,0.000000,1406.391290
1380.033427,-18431.127956,1455.581446,1998.556043
1380.033739,-13693.809927,153.219100,1480.411884
1380.034050,-9400.615463,-1685.410096,-0.000000
1380.034362,-4737.318029,-612.876398,-814.226536
1380.034673,-1480.411884,-229.828649,-1702.473667
1380.034985,-444.123565,536.266849,-2664.741391
1380.035296,-2368.659014,383.047749,-1776.494261
1380.035608,-7254.018232,-229.828649,-518.144159
1380.035919,-12139.377449,-919.314598,1332.370696
1380.036231,-15470.304188,1378.971896,2664.741391
1380.036542,-15766.386565,1532.190996,3627.009116
1380.036854,-12139.377449,919.314598,2442.679609
1380.037165,-7698.141797,-459.657299,444.123565
1380.037476,-4589.276840,-766.095498,814.226536
1380.037788,-2294.638420,-536.266849,1258.350101
1380.038099,-2368.659014,-1762.019645,888.247130
1380.038411,-3701.029710,-1838.629195,666.185348
1380.038722,-6661.853478,-1915.238745,1480.411884
1380.039034,-9696.697840,-1838.629195,2294.638420
1380.039345,-12361.439231,-459.657299,2738.761985
1380.039657,-14582.057057,536.266849,2442.679609
1380.039968,-15026.180623,842.705048,2146.597232
1380.040280,-12805.562797,1378.971896,2368.659014
1380.040591,-8956.491898,1378.971896,1776.494261
1380.040903,-5921.647536,536.266849,2220.617826
1380.041214,-4071.132681,153.219100,1480.411884
1380.041526,-3404.947333,-1149.143247,962.267725
1380.041837,-4219.173869,842.705048,1776.494261
1380.042149,-6957.935855,459.657299,1850.514855
1380.042460,-9770.718434,0.000000,1554.432478
1380.042772,-11621.233289,0.000000,1332.370696
1380.043083,-13397.727550,1991.848295,962.267725
1380.043394,-14211.954086,2604.724693,444.123565
1380.043706,-12213.398043,2145.067394,2368.659014
1380.044017,-9992.780217,919.314598,2072.576638
1380.044329,-8290.306550,-919.314598,2590.720797
1380.044640,-5699.585753,-1225.752797,3256.906145
1380.044952,-3478.967927,-1072.533697,2072.576638
1380.045263,-2516.700203,-459.657299,1110.308913
1380.045575,-4145.153275,-1378.971896,222.061783
1380.045886,-7105.977043,-2604.724693,-0.000000
1380.046198,-10658.965565,-383.047749,-296.082377
1380.046509,-13619.789333,1915.238745,296.082377
1380.046821,-15396.283594,2145.067394,1924.535449
1380.047132,-14656.077652,689.485948,2368.659014
1380.047444,-11103.089130,-612.876398,1924.535449
1380.047755,-7105.977043,-995.924147,1480.411884
1380.048067,-3997.112087,76.609550,814.226536
1380.048378,-1850.514855,-153.219100,-1036.288319
1380.048689,-2294.638420,76.609550,-1924.535449
1380.049001,-4737.318029,-1149.143247,-1554.432478
1380.049312,-9474.636058,-1608.800546,-814.226536
1380.049624,-12953.603985,-766.095498,148.041188
1380.049935,-15544.324782,536.266849,-0.000000
1380.050247,-16580.613101,1149.143247,1406.391290
1380.050558,-14211.954086,76.609550,2072.576638
1380.050870,-11547.212695,-2068.457845,1184.329507
1380.051181,-7328.038826,-1532.190996,814.226536
1380.051493,-3997.112087,-1378.971896,-370.102971
1380.051804,-2220.617826,-459.657299,-1776.494261
1380.052116,-2294.638420,766.095498,-2368.659014
1380.052427,-5033.400406,383.047749,-2442.679609
1380.052739,-9178.553681,0.000000,-1036.288319
1380.053050,-13101.645173,459.657299,148.041188
1380.053362,-17098.757260,1685.410096,666.185348
1380.053673,-17690.922014,2068.457845,2072.576638
1380.053984,-14434.015869,1225.752797,1184.329507
1380.054296,-9622.677246,153.219100,148.041188
1380.054607,-4663.297435,-536.266849,-444.123565
1380.054919,-1628.453072,-842.705048,-1850.514855
1380.055230,-666.185348,-842.705048,-2812.782580
1380.055542,-3478.967927,-612.876398,-1776.494261
1380.055853,-8290.306550,-612.876398,-296.082377
1380.056165,-14063.912898,-1149.143247,1332.370696
1380.056476,-17394.839637,-612.876398,2368.659014
1380.056788,-18505.148550,536.266849,2294.638420
1380.057099,-15618.345376,1532.190996,1406.391290
1380.057411,-10881.027347,1072.533697,-0.000000
1380.057722,-7031.956449,383.047749,-518.144159
1380.058034,-3701.029710,-766.095498,-518.144159
1380.058345,-2442.679609,-1225.752797,370.102971
1380.058657,-2442.679609,-612.876398,-0.000000
1380.058968,-4367.215058,-229.828649,592.164754
1380.059279,-7476.080014,-612.876398,814.226536
1380.059591,-9844.739029,-612.876398,2220.617826
1380.059902,-12287.418637,536.266849,1998.556043
1380.060214,-13323.706956,1378.971896,1776.494261
1380.060525,-12435.459826,1838.629195,1998.556043
1380.060837,-10807.006753,689.485948,1110.308913
1380.061148,-7772.162391,1149.143247,1480.411884
1380.061460,-6217.729913,383.047749,2072.576638
1380.061771,-5107.421000,306.438199,2072.576638
1380.062083,-3849.070898,0.000000,1406.391290
1380.062394,-4589.276840,-842.705048,1332.370696
1380.062706,-5995.668130,-1149.143247,592.164754
1380.063017,-8364.327145,-1532.190996,-74.020594
1380.063329,-11399.171507,1455.581446,518.144159
1380.063640,-15174.221811,2681.334243,1110.308913
